*RAS_DATA_START
*RAS_HEADER_START
*DISP_FMT_X "%.2f"
*DISP_FMT_Y "%.0f"
*DISP_FULLSCALE "28381.0000000000"
*DISP_LINE_COLOR "255.0000000000"
*DISP_LINE_STYLE "0.0000000000"
*DISP_LINE_WIDTH "0.2500000000"
*DISP_NOTE "測定データ-2"
*DISP_OFFSET_Y "0.0000000000"
*DISP_PEAKSEARCH_UNIT_Y "cps"
*DISP_RANGE_BOTTOM "0.0000000000"
*DISP_RANGE_LEFT "20.0000000000"
*DISP_RANGE_LOGCUTOFF "0.0100000000"
*DISP_RANGE_RIGHT "90.0000000000"
*DISP_RANGE_TOP "28381.0000000000"
*DISP_SCALE_MODE_Y "0.0000000000"
*DISP_TAB_NAME "2θ/θ"
*DISP_TITLE_Y "強度"
*DISP_UNIT_Y "cps"
*DISP_WINDOW_NAME "MSG_MACROENGINE"
*FILE_COMMENT " "
*FILE_MD5 ""
*FILE_MEMO " "
*FILE_OPERATOR "Administrator"
*FILE_SAMPLE " "
*FILE_TYPE "RAS_RAW"
*FILE_USERGROUP "システムマネージャ"
*FILE_VERSION "1.0000000000"
*HW_ATTACHMENT_ID "ATT0025"
*HW_ATTACHMENT_NAME "標準|Standard"
*HW_COUNTER_ID-0 "CUT0025"
*HW_COUNTER_ID-1 "CUT0020"
*HW_COUNTER_ID-2 "CUT0020"
*HW_COUNTER_ID-3 "CSL0021"
*HW_COUNTER_ID-4 "CMC0021"
*HW_COUNTER_NAME-0 "D/teX Ultra|D/teX Ultra"
*HW_COUNTER_NAME-1 "None|None"
*HW_COUNTER_NAME-2 "None|None"
*HW_COUNTER_NAME-3 "BBM|BBM"
*HW_COUNTER_NAME-4 "検出器モノクロメータ|Detector monochromator"
*HW_COUNTER_SELECT_NAME "D/teX Ultra|D/teX Ultra"
*HW_GONIOMETER_ID "GON0023"
*HW_GONIOMETER_NAME "SmartLab|SmartLab"
*HW_GONIOMETER_RADIUS-0 "90.0"
*HW_GONIOMETER_RADIUS-1 "114.0"
*HW_GONIOMETER_RADIUS-2 "190.0"
*HW_GONIOMETER_RADIUS-3 "300.0"
*HW_GONIOMETER_RADIUS-4 "187.0"
*HW_GONIOMETER_RADIUS-5 "300.0"
*HW_GONIOMETER_RADIUS-6 "113.0"
*HW_GONIOMETER_RADIUS-7 "331.0"
*HW_I_OPT_ID-0 "CBO0021"
*HW_I_OPT_ID-1 "ICR0023"
*HW_I_OPT_ID-2 "ISL0021"
*HW_I_OPT_ID-3 "ISO0021"
*HW_I_OPT_ID-4 "IAD0021"
*HW_I_OPT_ID-5 "IPR0001"
*HW_I_OPT_NAME-0 "CBOユニット|CBO unit"
*HW_I_OPT_NAME-1 "標準入射光学ユニット|Standard incident optical unit"
*HW_I_OPT_NAME-2 "標準入射スリットボックス|Standard incident slit box"
*HW_I_OPT_NAME-3 "入射平行スリット|Incident parallel slit"
*HW_I_OPT_NAME-4 "長手制限スリット|Length limiting slit"
*HW_I_OPT_NAME-5 "None|None"
*HW_R_ATTENUATER_AUTOMODE "0"
*HW_R_OPT_ID-0 "RSS0021"
*HW_R_OPT_ID-1 "RCR0023"
*HW_R_OPT_ID-2 "RSO0021"
*HW_R_OPT_ID-3 "RRS0021"
*HW_R_OPT_ID-4 "ATN0021"
*HW_R_OPT_ID-5 "RFL0021"
*HW_R_OPT_ID-6 "RAD0021"
*HW_R_OPT_NAME-0 "標準受光スリットボックス1|Standard receiving slit box # 1"
*HW_R_OPT_NAME-1 "標準受光光学ユニット1|Standard receiving unit # 1"
*HW_R_OPT_NAME-2 "標準受光光学ユニット2|Standard receiving optical unit # 2"
*HW_R_OPT_NAME-3 "標準受光スリットボックス2|Standard receiving slit box # 2"
*HW_R_OPT_NAME-4 "標準アッテネータ|Standard Attenuator"
*HW_R_OPT_NAME-5 "Cu Kβ|Cu K-beta"
*HW_R_OPT_NAME-6 "調整用受光スリット|Alignment receiving slit"
*HW_SAMPLE_HOLDER_ID "SMP0023"
*HW_SAMPLE_HOLDER_NAME "標準Zステージ|Standard Z stage"
*HW_XG_CURRENT_MAX "50"
*HW_XG_CURRENT_MIN "2"
*HW_XG_CURRENT_RESOLUTION "2"
*HW_XG_CURRENT_UNIT "mA"
*HW_XG_FOCUS "1mm x 10mm"
*HW_XG_FOCUS_TYPE "Normal"
*HW_XG_ID ""
*HW_XG_NAME "3kW 封入管(ID:1200)|3kW Sealed tube(ID:1200)"
*HW_XG_TARGET_ATOMIC_NUMBER "29.0000000000"
*HW_XG_TARGET_NAME "Cu"
*HW_XG_TYPE "Hermetic"
*HW_XG_VOLTAGE_MAX "60"
*HW_XG_VOLTAGE_MIN "20"
*HW_XG_VOLTAGE_RESOLUTION "2"
*HW_XG_VOLTAGE_UNIT "kV"
*HW_XG_WATT_MAX "2"
*HW_XG_WATT_UNIT "kW"
*HW_XG_WAVE_LENGTH_ALPHA1 "1.540593"
*HW_XG_WAVE_LENGTH_ALPHA2 "1.544414"
*HW_XG_WAVE_LENGTH_BETA "1.392250"
*MEAS_COND_AXIS_NAME-0 "2θ/θ"
*MEAS_COND_AXIS_NAME-1 "2θ"
*MEAS_COND_AXIS_NAME-2 "ω"
*MEAS_COND_AXIS_NAME-3 "Z"
*MEAS_COND_AXIS_NAME-4 "2θ/ω"
*MEAS_COND_AXIS_NAME-5 "θs"
*MEAS_COND_AXIS_NAME-6 "θd"
*MEAS_COND_AXIS_NAME-7 "Ts"
*MEAS_COND_AXIS_NAME-8 "CBO選択スリット"
*MEAS_COND_AXIS_NAME-9 "M"
*MEAS_COND_AXIS_NAME-10 "入射平行スリット"
*MEAS_COND_AXIS_NAME-11 "入射スリット"
*MEAS_COND_AXIS_NAME-12 ""
*MEAS_COND_AXIS_NAME-13 "Zs"
*MEAS_COND_AXIS_NAME-14 "入射光学素子"
*MEAS_COND_AXIS_NAME-15 "長手制限スリット"
*MEAS_COND_AXIS_NAME-16 "センタースリット"
*MEAS_COND_AXIS_NAME-17 "フィルター"
*MEAS_COND_AXIS_NAME-18 "受光スリット1"
*MEAS_COND_AXIS_NAME-19 "受光スリット2"
*MEAS_COND_AXIS_NAME-20 "受光光学素子"
*MEAS_COND_AXIS_NAME-21 "受光平行スリット"
*MEAS_COND_AXIS_NAME-22 "調整用受光スリット"
*MEAS_COND_AXIS_NAME-23 ""
*MEAS_COND_AXIS_NAME-24 ""
*MEAS_COND_AXIS_NAME-25 "Zd"
*MEAS_COND_AXIS_NAME-26 "アッテネータ"
*MEAS_COND_AXIS_NAME-27 "検出器モノクロメータ"
*MEAS_COND_AXIS_NAME-28 "モノクロメータスリット"
*MEAS_COND_AXIS_NAME-29 "プライマリビーム"
*MEAS_COND_AXIS_NAME-30 "PHA"
*MEAS_COND_AXIS_NAME_INTERNAL-0 "TwoThetaTheta"
*MEAS_COND_AXIS_NAME_INTERNAL-1 "TwoTheta"
*MEAS_COND_AXIS_NAME_INTERNAL-2 "Omega"
*MEAS_COND_AXIS_NAME_INTERNAL-3 "Z"
*MEAS_COND_AXIS_NAME_INTERNAL-4 "TwoThetaOmega"
*MEAS_COND_AXIS_NAME_INTERNAL-5 "ThetaS"
*MEAS_COND_AXIS_NAME_INTERNAL-6 "ThetaD"
*MEAS_COND_AXIS_NAME_INTERNAL-7 "Ts"
*MEAS_COND_AXIS_NAME_INTERNAL-8 "CBO"
*MEAS_COND_AXIS_NAME_INTERNAL-9 "CBO-M"
*MEAS_COND_AXIS_NAME_INTERNAL-10 "IncidentSollerSlit"
*MEAS_COND_AXIS_NAME_INTERNAL-11 "IncidentSlitBox"
*MEAS_COND_AXIS_NAME_INTERNAL-12 "IncidentSlitBox-_Axis"
*MEAS_COND_AXIS_NAME_INTERNAL-13 "Zs"
*MEAS_COND_AXIS_NAME_INTERNAL-14 "IncidentMonochromator"
*MEAS_COND_AXIS_NAME_INTERNAL-15 "IncidentAxdSlit"
*MEAS_COND_AXIS_NAME_INTERNAL-16 "CenterSlit"
*MEAS_COND_AXIS_NAME_INTERNAL-17 "Filter"
*MEAS_COND_AXIS_NAME_INTERNAL-18 "ReceivingSlitBox1"
*MEAS_COND_AXIS_NAME_INTERNAL-19 "ReceivingSlitBox2"
*MEAS_COND_AXIS_NAME_INTERNAL-20 "ReceivingOptics"
*MEAS_COND_AXIS_NAME_INTERNAL-21 "ReceivingSollerSlit"
*MEAS_COND_AXIS_NAME_INTERNAL-22 "ReceivingAxdSlit"
*MEAS_COND_AXIS_NAME_INTERNAL-23 "ReceivingSlitBox1-_Axis"
*MEAS_COND_AXIS_NAME_INTERNAL-24 "ReceivingSlitBox2-_Axis"
*MEAS_COND_AXIS_NAME_INTERNAL-25 "ReceivingSlitBox2-Zd"
*MEAS_COND_AXIS_NAME_INTERNAL-26 "Attenuator"
*MEAS_COND_AXIS_NAME_INTERNAL-27 "CounterMonochromator"
*MEAS_COND_AXIS_NAME_INTERNAL-28 "CounterSlit"
*MEAS_COND_AXIS_NAME_INTERNAL-29 "IncidentPrimary"
*MEAS_COND_AXIS_NAME_INTERNAL-30 "PHA"
*MEAS_COND_AXIS_NAME_MAGICNO-0 "83951616.0000000000"
*MEAS_COND_AXIS_NAME_MAGICNO-1 "268632064.0000000000"
*MEAS_COND_AXIS_NAME_MAGICNO-2 "268500992.0000000000"
*MEAS_COND_AXIS_NAME_MAGICNO-3 "285278208.0000000000"
*MEAS_COND_AXIS_NAME_MAGICNO-4 "83951616.0000000000"
*MEAS_COND_AXIS_NAME_MAGICNO-5 "131072.0000000000"
*MEAS_COND_AXIS_NAME_MAGICNO-6 "131072.0000000000"
*MEAS_COND_AXIS_NAME_MAGICNO-7 "318898176.0000000000"
*MEAS_COND_AXIS_NAME_MAGICNO-8 "20971521.0000000000"
*MEAS_COND_AXIS_NAME_MAGICNO-9 "285343744.0000000000"
*MEAS_COND_AXIS_NAME_MAGICNO-10 "20971521.0000000000"
*MEAS_COND_AXIS_NAME_MAGICNO-11 "22020097.0000000000"
*MEAS_COND_AXIS_NAME_MAGICNO-12 "25165824.0000000000"
*MEAS_COND_AXIS_NAME_MAGICNO-13 "318898176.0000000000"
*MEAS_COND_AXIS_NAME_MAGICNO-14 "1.0000000000"
*MEAS_COND_AXIS_NAME_MAGICNO-15 "20971521.0000000000"
*MEAS_COND_AXIS_NAME_MAGICNO-16 "20971521.0000000000"
*MEAS_COND_AXIS_NAME_MAGICNO-17 "20971521.0000000000"
*MEAS_COND_AXIS_NAME_MAGICNO-18 "23068673.0000000000"
*MEAS_COND_AXIS_NAME_MAGICNO-19 "23068673.0000000000"
*MEAS_COND_AXIS_NAME_MAGICNO-20 "20971521.0000000000"
*MEAS_COND_AXIS_NAME_MAGICNO-21 "20971521.0000000000"
*MEAS_COND_AXIS_NAME_MAGICNO-22 "20971521.0000000000"
*MEAS_COND_AXIS_NAME_MAGICNO-23 "25165824.0000000000"
*MEAS_COND_AXIS_NAME_MAGICNO-24 "25165824.0000000000"
*MEAS_COND_AXIS_NAME_MAGICNO-25 "285343744.0000000000"
*MEAS_COND_AXIS_NAME_MAGICNO-26 "17301505.0000000000"
*MEAS_COND_AXIS_NAME_MAGICNO-27 "20971521.0000000000"
*MEAS_COND_AXIS_NAME_MAGICNO-28 "20971521.0000000000"
*MEAS_COND_AXIS_NAME_MAGICNO-29 "20971521.0000000000"
*MEAS_COND_AXIS_NAME_MAGICNO-30 "0.0000000000"
*MEAS_COND_AXIS_OFFSET-0 "-"
*MEAS_COND_AXIS_OFFSET-1 "-0.1081000000"
*MEAS_COND_AXIS_OFFSET-2 "0.3758000000"
*MEAS_COND_AXIS_OFFSET-3 "-"
*MEAS_COND_AXIS_OFFSET-4 "-"
*MEAS_COND_AXIS_OFFSET-5 "0.3758000000"
*MEAS_COND_AXIS_OFFSET-6 "-0.4839000000"
*MEAS_COND_AXIS_OFFSET-7 "-"
*MEAS_COND_AXIS_OFFSET-8 "-"
*MEAS_COND_AXIS_OFFSET-9 "-"
*MEAS_COND_AXIS_OFFSET-10 "-"
*MEAS_COND_AXIS_OFFSET-11 "-"
*MEAS_COND_AXIS_OFFSET-12 "-"
*MEAS_COND_AXIS_OFFSET-13 "-"
*MEAS_COND_AXIS_OFFSET-14 "-"
*MEAS_COND_AXIS_OFFSET-15 "-"
*MEAS_COND_AXIS_OFFSET-16 "-"
*MEAS_COND_AXIS_OFFSET-17 "-"
*MEAS_COND_AXIS_OFFSET-18 "-"
*MEAS_COND_AXIS_OFFSET-19 "-"
*MEAS_COND_AXIS_OFFSET-20 "-"
*MEAS_COND_AXIS_OFFSET-21 "-"
*MEAS_COND_AXIS_OFFSET-22 "-"
*MEAS_COND_AXIS_OFFSET-23 "-"
*MEAS_COND_AXIS_OFFSET-24 "-"
*MEAS_COND_AXIS_OFFSET-25 "-"
*MEAS_COND_AXIS_OFFSET-26 "-"
*MEAS_COND_AXIS_OFFSET-27 "-"
*MEAS_COND_AXIS_OFFSET-28 "-"
*MEAS_COND_AXIS_OFFSET-29 "-"
*MEAS_COND_AXIS_OFFSET-30 "-"
*MEAS_COND_AXIS_POSITION-0 "0.0000000000"
*MEAS_COND_AXIS_POSITION-1 "0.0000000000"
*MEAS_COND_AXIS_POSITION-2 "0.0000000000"
*MEAS_COND_AXIS_POSITION-3 "-0.5500000000"
*MEAS_COND_AXIS_POSITION-4 "0.0000000000"
*MEAS_COND_AXIS_POSITION-5 "0.0000000000"
*MEAS_COND_AXIS_POSITION-6 "0.0000000000"
*MEAS_COND_AXIS_POSITION-7 "-0.4278800000"
*MEAS_COND_AXIS_POSITION-8 "BB"
*MEAS_COND_AXIS_POSITION-9 "0.0000000000"
*MEAS_COND_AXIS_POSITION-10 "Soller_slit_5.0deg"
*MEAS_COND_AXIS_POSITION-11 "2/3deg"
*MEAS_COND_AXIS_POSITION-12 "2.2088000000"
*MEAS_COND_AXIS_POSITION-13 "-0.4140600000"
*MEAS_COND_AXIS_POSITION-14 "0.0000000000"
*MEAS_COND_AXIS_POSITION-15 "10.0mm"
*MEAS_COND_AXIS_POSITION-16 "None"
*MEAS_COND_AXIS_POSITION-17 "Cu_K-beta"
*MEAS_COND_AXIS_POSITION-18 "13.000mm"
*MEAS_COND_AXIS_POSITION-19 "13.000mm"
*MEAS_COND_AXIS_POSITION-20 "No_unit"
*MEAS_COND_AXIS_POSITION-21 "Soller_slit_5.0deg"
*MEAS_COND_AXIS_POSITION-22 "None"
*MEAS_COND_AXIS_POSITION-23 "13.0000000000"
*MEAS_COND_AXIS_POSITION-24 "13.0000000000"
*MEAS_COND_AXIS_POSITION-25 "0.0109400000"
*MEAS_COND_AXIS_POSITION-26 "Open"
*MEAS_COND_AXIS_POSITION-27 "None"
*MEAS_COND_AXIS_POSITION-28 "None"
*MEAS_COND_AXIS_POSITION-29 "None"
*MEAS_COND_AXIS_POSITION-30 "38.0000000000"
*MEAS_COND_AXIS_UNIT-0 "deg"
*MEAS_COND_AXIS_UNIT-1 "deg"
*MEAS_COND_AXIS_UNIT-2 "deg"
*MEAS_COND_AXIS_UNIT-3 "mm"
*MEAS_COND_AXIS_UNIT-4 "deg"
*MEAS_COND_AXIS_UNIT-5 "deg"
*MEAS_COND_AXIS_UNIT-6 "deg"
*MEAS_COND_AXIS_UNIT-7 "mm"
*MEAS_COND_AXIS_UNIT-8 ""
*MEAS_COND_AXIS_UNIT-9 "pulse"
*MEAS_COND_AXIS_UNIT-10 ""
*MEAS_COND_AXIS_UNIT-11 ""
*MEAS_COND_AXIS_UNIT-12 "mm"
*MEAS_COND_AXIS_UNIT-13 "mm"
*MEAS_COND_AXIS_UNIT-14 ""
*MEAS_COND_AXIS_UNIT-15 ""
*MEAS_COND_AXIS_UNIT-16 ""
*MEAS_COND_AXIS_UNIT-17 ""
*MEAS_COND_AXIS_UNIT-18 ""
*MEAS_COND_AXIS_UNIT-19 ""
*MEAS_COND_AXIS_UNIT-20 ""
*MEAS_COND_AXIS_UNIT-21 ""
*MEAS_COND_AXIS_UNIT-22 ""
*MEAS_COND_AXIS_UNIT-23 "mm"
*MEAS_COND_AXIS_UNIT-24 "mm"
*MEAS_COND_AXIS_UNIT-25 "mm"
*MEAS_COND_AXIS_UNIT-26 ""
*MEAS_COND_AXIS_UNIT-27 ""
*MEAS_COND_AXIS_UNIT-28 ""
*MEAS_COND_AXIS_UNIT-29 ""
*MEAS_COND_AXIS_UNIT-30 "div"
*MEAS_COND_COUNTER_CNTLOSS_CORR "0.0000000000"
*MEAS_COND_COUNTER_PHABASE "38.0000000000"
*MEAS_COND_COUNTER_PHAWINDOW "16.0000000000"
*MEAS_COND_COUNTER_PHA_UNIT "div"
*MEAS_COND_COUNTER_TAUDIFF "30.0000000000"
*MEAS_COND_COUNTER_TAUINT "0.0000000000"
*MEAS_COND_IRRADIATION_MODE "OFF"
*MEAS_COND_IRRADIATION_WIDTH ""
*MEAS_COND_OPT_ATTR "集中法"
*MEAS_COND_OPT_NAME "@集中法"
*MEAS_COND_UNSYMMETRIC_MODE "OFF"
*MEAS_COND_XG_CURRENT "30.0000000000"
*MEAS_COND_XG_VOLTAGE "40.0000000000"
*MEAS_COND_XG_WAVE_TYPE "Ka"
*MEAS_DATA_COUNT "3501.0000000000"
*MEAS_SCAN_AXIS_X "2θ/θ"
*MEAS_SCAN_AXIS_X_INTERNAL "TwoThetaTheta"
*MEAS_SCAN_END_TIME "09/18/20 15:03:28"
*MEAS_SCAN_MODE "CONTINUOUS"
*MEAS_SCAN_MONITOR "0"
*MEAS_SCAN_RESOLUTION_X "0.0002"
*MEAS_SCAN_SPEED "1.0"
*MEAS_SCAN_SPEED_UNIT "deg/min"
*MEAS_SCAN_START "20.0000000000"
*MEAS_SCAN_START_TIME "09/18/20 13:50:34"
*MEAS_SCAN_STEP "0.0200000000"
*MEAS_SCAN_STOP "90.0000000000"
*MEAS_SCAN_UNIT_X "deg"
*MEAS_SCAN_UNIT_Y "counts"
*RAS_HEADER_END
*RAS_INT_START
20.0000 13449.0000 1.0000
20.0200 13935.0000 1.0000
20.0400 14112.0000 1.0000
20.0600 13991.0000 1.0000
20.0800 13953.0000 1.0000
20.1000 13924.0000 1.0000
20.1200 14021.0000 1.0000
20.1400 13762.0000 1.0000
20.1600 14086.0000 1.0000
20.1800 13916.0000 1.0000
20.2000 14153.0000 1.0000
20.2200 14208.0000 1.0000
20.2400 14130.0000 1.0000
20.2600 14146.0000 1.0000
20.2800 14134.0000 1.0000
20.3000 13952.0000 1.0000
20.3200 14087.0000 1.0000
20.3400 13900.0000 1.0000
20.3600 13870.0000 1.0000
20.3800 13969.0000 1.0000
20.4000 14305.0000 1.0000
20.4200 14387.0000 1.0000
20.4400 14065.0000 1.0000
20.4600 14091.0000 1.0000
20.4800 14052.0000 1.0000
20.5000 14026.0000 1.0000
20.5200 13955.0000 1.0000
20.5400 13928.0000 1.0000
20.5600 14150.0000 1.0000
20.5800 14183.0000 1.0000
20.6000 14133.0000 1.0000
20.6200 14059.0000 1.0000
20.6400 14224.0000 1.0000
20.6600 13897.0000 1.0000
20.6800 14084.0000 1.0000
20.7000 14145.0000 1.0000
20.7200 14136.0000 1.0000
20.7400 14197.0000 1.0000
20.7600 14331.0000 1.0000
20.7800 14349.0000 1.0000
20.8000 14172.0000 1.0000
20.8200 14099.0000 1.0000
20.8400 14535.0000 1.0000
20.8600 14937.0000 1.0000
20.8800 14837.0000 1.0000
20.9000 14500.0000 1.0000
20.9200 14633.0000 1.0000
20.9400 14397.0000 1.0000
20.9600 14375.0000 1.0000
20.9800 14224.0000 1.0000
21.0000 14043.0000 1.0000
21.0200 14082.0000 1.0000
21.0400 14245.0000 1.0000
21.0600 14163.0000 1.0000
21.0800 13900.0000 1.0000
21.1000 14113.0000 1.0000
21.1200 14068.0000 1.0000
21.1400 13993.0000 1.0000
21.1600 14279.0000 1.0000
21.1800 14148.0000 1.0000
21.2000 14095.0000 1.0000
21.2200 14105.0000 1.0000
21.2400 14033.0000 1.0000
21.2600 13958.0000 1.0000
21.2800 14396.0000 1.0000
21.3000 14173.0000 1.0000
21.3200 14351.0000 1.0000
21.3400 14311.0000 1.0000
21.3600 14173.0000 1.0000
21.3800 14013.0000 1.0000
21.4000 14125.0000 1.0000
21.4200 14221.0000 1.0000
21.4400 14287.0000 1.0000
21.4600 14075.0000 1.0000
21.4800 14111.0000 1.0000
21.5000 14258.0000 1.0000
21.5200 14041.0000 1.0000
21.5400 14285.0000 1.0000
21.5600 14016.0000 1.0000
21.5800 14278.0000 1.0000
21.6000 14194.0000 1.0000
21.6200 14241.0000 1.0000
21.6400 14182.0000 1.0000
21.6600 14065.0000 1.0000
21.6800 14081.0000 1.0000
21.7000 14088.0000 1.0000
21.7200 14155.0000 1.0000
21.7400 13840.0000 1.0000
21.7600 13859.0000 1.0000
21.7800 14129.0000 1.0000
21.8000 14242.0000 1.0000
21.8200 14251.0000 1.0000
21.8400 14134.0000 1.0000
21.8600 14398.0000 1.0000
21.8800 14074.0000 1.0000
21.9000 14170.0000 1.0000
21.9200 14026.0000 1.0000
21.9400 13940.0000 1.0000
21.9600 14144.0000 1.0000
21.9800 13952.0000 1.0000
22.0000 14055.0000 1.0000
22.0200 14122.0000 1.0000
22.0400 14150.0000 1.0000
22.0600 14271.0000 1.0000
22.0800 14178.0000 1.0000
22.1000 14171.0000 1.0000
22.1200 14167.0000 1.0000
22.1400 14324.0000 1.0000
22.1600 14034.0000 1.0000
22.1800 14092.0000 1.0000
22.2000 14265.0000 1.0000
22.2200 14079.0000 1.0000
22.2400 13860.0000 1.0000
22.2600 14077.0000 1.0000
22.2800 14069.0000 1.0000
22.3000 14130.0000 1.0000
22.3200 14134.0000 1.0000
22.3400 14105.0000 1.0000
22.3600 14201.0000 1.0000
22.3800 14101.0000 1.0000
22.4000 14265.0000 1.0000
22.4200 14051.0000 1.0000
22.4400 14095.0000 1.0000
22.4600 14193.0000 1.0000
22.4800 14162.0000 1.0000
22.5000 14158.0000 1.0000
22.5200 14252.0000 1.0000
22.5400 14337.0000 1.0000
22.5600 14232.0000 1.0000
22.5800 14075.0000 1.0000
22.6000 14082.0000 1.0000
22.6200 14015.0000 1.0000
22.6400 13976.0000 1.0000
22.6600 14142.0000 1.0000
22.6800 14007.0000 1.0000
22.7000 14073.0000 1.0000
22.7200 14143.0000 1.0000
22.7400 14092.0000 1.0000
22.7600 14096.0000 1.0000
22.7800 14213.0000 1.0000
22.8000 14132.0000 1.0000
22.8200 14338.0000 1.0000
22.8400 14180.0000 1.0000
22.8600 14053.0000 1.0000
22.8800 14239.0000 1.0000
22.9000 14225.0000 1.0000
22.9200 13993.0000 1.0000
22.9400 14153.0000 1.0000
22.9600 14206.0000 1.0000
22.9800 14320.0000 1.0000
23.0000 13994.0000 1.0000
23.0200 14320.0000 1.0000
23.0400 14094.0000 1.0000
23.0600 14153.0000 1.0000
23.0800 14061.0000 1.0000
23.1000 14143.0000 1.0000
23.1200 14052.0000 1.0000
23.1400 14272.0000 1.0000
23.1600 14303.0000 1.0000
23.1800 14215.0000 1.0000
23.2000 13932.0000 1.0000
23.2200 14009.0000 1.0000
23.2400 13958.0000 1.0000
23.2600 13970.0000 1.0000
23.2800 14190.0000 1.0000
23.3000 13924.0000 1.0000
23.3200 13892.0000 1.0000
23.3400 14097.0000 1.0000
23.3600 14080.0000 1.0000
23.3800 14256.0000 1.0000
23.4000 14090.0000 1.0000
23.4200 14389.0000 1.0000
23.4400 14113.0000 1.0000
23.4600 14350.0000 1.0000
23.4800 14238.0000 1.0000
23.5000 14072.0000 1.0000
23.5200 14264.0000 1.0000
23.5400 14019.0000 1.0000
23.5600 14174.0000 1.0000
23.5800 13890.0000 1.0000
23.6000 14394.0000 1.0000
23.6200 14324.0000 1.0000
23.6400 14340.0000 1.0000
23.6600 14098.0000 1.0000
23.6800 14200.0000 1.0000
23.7000 14133.0000 1.0000
23.7200 14277.0000 1.0000
23.7400 14112.0000 1.0000
23.7600 14440.0000 1.0000
23.7800 14306.0000 1.0000
23.8000 14190.0000 1.0000
23.8200 14425.0000 1.0000
23.8400 14370.0000 1.0000
23.8600 14316.0000 1.0000
23.8800 14462.0000 1.0000
23.9000 14422.0000 1.0000
23.9200 14450.0000 1.0000
23.9400 14500.0000 1.0000
23.9600 14459.0000 1.0000
23.9800 14534.0000 1.0000
24.0000 14610.0000 1.0000
24.0200 14780.0000 1.0000
24.0400 15017.0000 1.0000
24.0600 15422.0000 1.0000
24.0800 15646.0000 1.0000
24.1000 15816.0000 1.0000
24.1200 16325.0000 1.0000
24.1400 16848.0000 1.0000
24.1600 16870.0000 1.0000
24.1800 16727.0000 1.0000
24.2000 16603.0000 1.0000
24.2200 16018.0000 1.0000
24.2400 15396.0000 1.0000
24.2600 14923.0000 1.0000
24.2800 14622.0000 1.0000
24.3000 14469.0000 1.0000
24.3200 14685.0000 1.0000
24.3400 14320.0000 1.0000
24.3600 14264.0000 1.0000
24.3800 14235.0000 1.0000
24.4000 14268.0000 1.0000
24.4200 14138.0000 1.0000
24.4400 14122.0000 1.0000
24.4600 14191.0000 1.0000
24.4800 14128.0000 1.0000
24.5000 14122.0000 1.0000
24.5200 14152.0000 1.0000
24.5400 14180.0000 1.0000
24.5600 14055.0000 1.0000
24.5800 14147.0000 1.0000
24.6000 14218.0000 1.0000
24.6200 14018.0000 1.0000
24.6400 13949.0000 1.0000
24.6600 14003.0000 1.0000
24.6800 13919.0000 1.0000
24.7000 14191.0000 1.0000
24.7200 13897.0000 1.0000
24.7400 13989.0000 1.0000
24.7600 14188.0000 1.0000
24.7800 14069.0000 1.0000
24.8000 13944.0000 1.0000
24.8200 14050.0000 1.0000
24.8400 14098.0000 1.0000
24.8600 13986.0000 1.0000
24.8800 14356.0000 1.0000
24.9000 14131.0000 1.0000
24.9200 14260.0000 1.0000
24.9400 14249.0000 1.0000
24.9600 14113.0000 1.0000
24.9800 14179.0000 1.0000
25.0000 14128.0000 1.0000
25.0200 14323.0000 1.0000
25.0400 14111.0000 1.0000
25.0600 14179.0000 1.0000
25.0800 14097.0000 1.0000
25.1000 14136.0000 1.0000
25.1200 14067.0000 1.0000
25.1400 14388.0000 1.0000
25.1600 14179.0000 1.0000
25.1800 14055.0000 1.0000
25.2000 14153.0000 1.0000
25.2200 14085.0000 1.0000
25.2400 14116.0000 1.0000
25.2600 13815.0000 1.0000
25.2800 13919.0000 1.0000
25.3000 14012.0000 1.0000
25.3200 14348.0000 1.0000
25.3400 14143.0000 1.0000
25.3600 14113.0000 1.0000
25.3800 14182.0000 1.0000
25.4000 14214.0000 1.0000
25.4200 14430.0000 1.0000
25.4400 14350.0000 1.0000
25.4600 14284.0000 1.0000
25.4800 14369.0000 1.0000
25.5000 14667.0000 1.0000
25.5200 14510.0000 1.0000
25.5400 14689.0000 1.0000
25.5600 14636.0000 1.0000
25.5800 14696.0000 1.0000
25.6000 14782.0000 1.0000
25.6200 14804.0000 1.0000
25.6400 14627.0000 1.0000
25.6600 14135.0000 1.0000
25.6800 14400.0000 1.0000
25.7000 14394.0000 1.0000
25.7200 14195.0000 1.0000
25.7400 14223.0000 1.0000
25.7600 14288.0000 1.0000
25.7800 14162.0000 1.0000
25.8000 14169.0000 1.0000
25.8200 14034.0000 1.0000
25.8400 14158.0000 1.0000
25.8600 14157.0000 1.0000
25.8800 14068.0000 1.0000
25.9000 14047.0000 1.0000
25.9200 14183.0000 1.0000
25.9400 14212.0000 1.0000
25.9600 14226.0000 1.0000
25.9800 14022.0000 1.0000
26.0000 13935.0000 1.0000
26.0200 13804.0000 1.0000
26.0400 14097.0000 1.0000
26.0600 13992.0000 1.0000
26.0800 14104.0000 1.0000
26.1000 14132.0000 1.0000
26.1200 13914.0000 1.0000
26.1400 14173.0000 1.0000
26.1600 14028.0000 1.0000
26.1800 13972.0000 1.0000
26.2000 14146.0000 1.0000
26.2200 14067.0000 1.0000
26.2400 14106.0000 1.0000
26.2600 14278.0000 1.0000
26.2800 14052.0000 1.0000
26.3000 14206.0000 1.0000
26.3200 14305.0000 1.0000
26.3400 14043.0000 1.0000
26.3600 14006.0000 1.0000
26.3800 14146.0000 1.0000
26.4000 14255.0000 1.0000
26.4200 14432.0000 1.0000
26.4400 14398.0000 1.0000
26.4600 14705.0000 1.0000
26.4800 14862.0000 1.0000
26.5000 15013.0000 1.0000
26.5200 15665.0000 1.0000
26.5400 15596.0000 1.0000
26.5600 16086.0000 1.0000
26.5800 17831.0000 1.0000
26.6000 18614.0000 1.0000
26.6200 18729.0000 1.0000
26.6400 19854.0000 1.0000
26.6600 19995.0000 1.0000
26.6800 18545.0000 1.0000
26.7000 17779.0000 1.0000
26.7200 16590.0000 1.0000
26.7400 15811.0000 1.0000
26.7600 14993.0000 1.0000
26.7800 14562.0000 1.0000
26.8000 14170.0000 1.0000
26.8200 14009.0000 1.0000
26.8400 14191.0000 1.0000
26.8600 14306.0000 1.0000
26.8800 14218.0000 1.0000
26.9000 13954.0000 1.0000
26.9200 14203.0000 1.0000
26.9400 14100.0000 1.0000
26.9600 13845.0000 1.0000
26.9800 14027.0000 1.0000
27.0000 14137.0000 1.0000
27.0200 14030.0000 1.0000
27.0400 14003.0000 1.0000
27.0600 14272.0000 1.0000
27.0800 13999.0000 1.0000
27.1000 14098.0000 1.0000
27.1200 13948.0000 1.0000
27.1400 13715.0000 1.0000
27.1600 13883.0000 1.0000
27.1800 13943.0000 1.0000
27.2000 13917.0000 1.0000
27.2200 14077.0000 1.0000
27.2400 14002.0000 1.0000
27.2600 14104.0000 1.0000
27.2800 14066.0000 1.0000
27.3000 14030.0000 1.0000
27.3200 14179.0000 1.0000
27.3400 13948.0000 1.0000
27.3600 13837.0000 1.0000
27.3800 13819.0000 1.0000
27.4000 13917.0000 1.0000
27.4200 14028.0000 1.0000
27.4400 14018.0000 1.0000
27.4600 14012.0000 1.0000
27.4800 13957.0000 1.0000
27.5000 13947.0000 1.0000
27.5200 14119.0000 1.0000
27.5400 13924.0000 1.0000
27.5600 13776.0000 1.0000
27.5800 13786.0000 1.0000
27.6000 13783.0000 1.0000
27.6200 13758.0000 1.0000
27.6400 13918.0000 1.0000
27.6600 14117.0000 1.0000
27.6800 14206.0000 1.0000
27.7000 13846.0000 1.0000
27.7200 13833.0000 1.0000
27.7400 13994.0000 1.0000
27.7600 14014.0000 1.0000
27.7800 13957.0000 1.0000
27.8000 13951.0000 1.0000
27.8200 13836.0000 1.0000
27.8400 13824.0000 1.0000
27.8600 14007.0000 1.0000
27.8800 14002.0000 1.0000
27.9000 13830.0000 1.0000
27.9200 13996.0000 1.0000
27.9400 14176.0000 1.0000
27.9600 14048.0000 1.0000
27.9800 13703.0000 1.0000
28.0000 13699.0000 1.0000
28.0200 13932.0000 1.0000
28.0400 14001.0000 1.0000
28.0600 13977.0000 1.0000
28.0800 13868.0000 1.0000
28.1000 14017.0000 1.0000
28.1200 13884.0000 1.0000
28.1400 13941.0000 1.0000
28.1600 13734.0000 1.0000
28.1800 13931.0000 1.0000
28.2000 13901.0000 1.0000
28.2200 14065.0000 1.0000
28.2400 13824.0000 1.0000
28.2600 14020.0000 1.0000
28.2800 13747.0000 1.0000
28.3000 13881.0000 1.0000
28.3200 13673.0000 1.0000
28.3400 13956.0000 1.0000
28.3600 13759.0000 1.0000
28.3800 13831.0000 1.0000
28.4000 13965.0000 1.0000
28.4200 13800.0000 1.0000
28.4400 13901.0000 1.0000
28.4600 14134.0000 1.0000
28.4800 13987.0000 1.0000
28.5000 13775.0000 1.0000
28.5200 14053.0000 1.0000
28.5400 13957.0000 1.0000
28.5600 13931.0000 1.0000
28.5800 13927.0000 1.0000
28.6000 13730.0000 1.0000
28.6200 13823.0000 1.0000
28.6400 13808.0000 1.0000
28.6600 13898.0000 1.0000
28.6800 13754.0000 1.0000
28.7000 14037.0000 1.0000
28.7200 13937.0000 1.0000
28.7400 13829.0000 1.0000
28.7600 13914.0000 1.0000
28.7800 13901.0000 1.0000
28.8000 13885.0000 1.0000
28.8200 13850.0000 1.0000
28.8400 13949.0000 1.0000
28.8600 13722.0000 1.0000
28.8800 13748.0000 1.0000
28.9000 13925.0000 1.0000
28.9200 13850.0000 1.0000
28.9400 13874.0000 1.0000
28.9600 13850.0000 1.0000
28.9800 13658.0000 1.0000
29.0000 13721.0000 1.0000
29.0200 13699.0000 1.0000
29.0400 14032.0000 1.0000
29.0600 13849.0000 1.0000
29.0800 13821.0000 1.0000
29.1000 13903.0000 1.0000
29.1200 13919.0000 1.0000
29.1400 13983.0000 1.0000
29.1600 13928.0000 1.0000
29.1800 13809.0000 1.0000
29.2000 13759.0000 1.0000
29.2200 13824.0000 1.0000
29.2400 13811.0000 1.0000
29.2600 13831.0000 1.0000
29.2800 13994.0000 1.0000
29.3000 13923.0000 1.0000
29.3200 13867.0000 1.0000
29.3400 13789.0000 1.0000
29.3600 14030.0000 1.0000
29.3800 13974.0000 1.0000
29.4000 13869.0000 1.0000
29.4200 14005.0000 1.0000
29.4400 13839.0000 1.0000
29.4600 13861.0000 1.0000
29.4800 13779.0000 1.0000
29.5000 13663.0000 1.0000
29.5200 14093.0000 1.0000
29.5400 13870.0000 1.0000
29.5600 14013.0000 1.0000
29.5800 13816.0000 1.0000
29.6000 13901.0000 1.0000
29.6200 13691.0000 1.0000
29.6400 13783.0000 1.0000
29.6600 13793.0000 1.0000
29.6800 13945.0000 1.0000
29.7000 13862.0000 1.0000
29.7200 14000.0000 1.0000
29.7400 13770.0000 1.0000
29.7600 14028.0000 1.0000
29.7800 13763.0000 1.0000
29.8000 13898.0000 1.0000
29.8200 13935.0000 1.0000
29.8400 13923.0000 1.0000
29.8600 14121.0000 1.0000
29.8800 14303.0000 1.0000
29.9000 14223.0000 1.0000
29.9200 14335.0000 1.0000
29.9400 14231.0000 1.0000
29.9600 14245.0000 1.0000
29.9800 14628.0000 1.0000
30.0000 14875.0000 1.0000
30.0200 15240.0000 1.0000
30.0400 15423.0000 1.0000
30.0600 15972.0000 1.0000
30.0800 16636.0000 1.0000
30.1000 17497.0000 1.0000
30.1200 17874.0000 1.0000
30.1400 17750.0000 1.0000
30.1600 17937.0000 1.0000
30.1800 17342.0000 1.0000
30.2000 16725.0000 1.0000
30.2200 16436.0000 1.0000
30.2400 15887.0000 1.0000
30.2600 15539.0000 1.0000
30.2800 14973.0000 1.0000
30.3000 14836.0000 1.0000
30.3200 14666.0000 1.0000
30.3400 14498.0000 1.0000
30.3600 14115.0000 1.0000
30.3800 14158.0000 1.0000
30.4000 14169.0000 1.0000
30.4200 13931.0000 1.0000
30.4400 14134.0000 1.0000
30.4600 13902.0000 1.0000
30.4800 13945.0000 1.0000
30.5000 13736.0000 1.0000
30.5200 13905.0000 1.0000
30.5400 13863.0000 1.0000
30.5600 14105.0000 1.0000
30.5800 13834.0000 1.0000
30.6000 14017.0000 1.0000
30.6200 13794.0000 1.0000
30.6400 14042.0000 1.0000
30.6600 14064.0000 1.0000
30.6800 13962.0000 1.0000
30.7000 13934.0000 1.0000
30.7200 13741.0000 1.0000
30.7400 13757.0000 1.0000
30.7600 13859.0000 1.0000
30.7800 13843.0000 1.0000
30.8000 13833.0000 1.0000
30.8200 14049.0000 1.0000
30.8400 13697.0000 1.0000
30.8600 13828.0000 1.0000
30.8800 13800.0000 1.0000
30.9000 13849.0000 1.0000
30.9200 13807.0000 1.0000
30.9400 13735.0000 1.0000
30.9600 13824.0000 1.0000
30.9800 13646.0000 1.0000
31.0000 13912.0000 1.0000
31.0200 13771.0000 1.0000
31.0400 13736.0000 1.0000
31.0600 13680.0000 1.0000
31.0800 13813.0000 1.0000
31.1000 13872.0000 1.0000
31.1200 13817.0000 1.0000
31.1400 13712.0000 1.0000
31.1600 13792.0000 1.0000
31.1800 13711.0000 1.0000
31.2000 13659.0000 1.0000
31.2200 13615.0000 1.0000
31.2400 13684.0000 1.0000
31.2600 13817.0000 1.0000
31.2800 13685.0000 1.0000
31.3000 14031.0000 1.0000
31.3200 13765.0000 1.0000
31.3400 13789.0000 1.0000
31.3600 13736.0000 1.0000
31.3800 13776.0000 1.0000
31.4000 13840.0000 1.0000
31.4200 13963.0000 1.0000
31.4400 13538.0000 1.0000
31.4600 13712.0000 1.0000
31.4800 13670.0000 1.0000
31.5000 13724.0000 1.0000
31.5200 13661.0000 1.0000
31.5400 13934.0000 1.0000
31.5600 13845.0000 1.0000
31.5800 13588.0000 1.0000
31.6000 13955.0000 1.0000
31.6200 13884.0000 1.0000
31.6400 13787.0000 1.0000
31.6600 13645.0000 1.0000
31.6800 13848.0000 1.0000
31.7000 13923.0000 1.0000
31.7200 14109.0000 1.0000
31.7400 13847.0000 1.0000
31.7600 13726.0000 1.0000
31.7800 13869.0000 1.0000
31.8000 13885.0000 1.0000
31.8200 13835.0000 1.0000
31.8400 13783.0000 1.0000
31.8600 13824.0000 1.0000
31.8800 13970.0000 1.0000
31.9000 13913.0000 1.0000
31.9200 13891.0000 1.0000
31.9400 13786.0000 1.0000
31.9600 13944.0000 1.0000
31.9800 13743.0000 1.0000
32.0000 14073.0000 1.0000
32.0200 13949.0000 1.0000
32.0400 13788.0000 1.0000
32.0600 13910.0000 1.0000
32.0800 13997.0000 1.0000
32.1000 13958.0000 1.0000
32.1200 13931.0000 1.0000
32.1400 14020.0000 1.0000
32.1600 13723.0000 1.0000
32.1800 13811.0000 1.0000
32.2000 13718.0000 1.0000
32.2200 13718.0000 1.0000
32.2400 13789.0000 1.0000
32.2600 13791.0000 1.0000
32.2800 13754.0000 1.0000
32.3000 13794.0000 1.0000
32.3200 13750.0000 1.0000
32.3400 13926.0000 1.0000
32.3600 13743.0000 1.0000
32.3800 13730.0000 1.0000
32.4000 13766.0000 1.0000
32.4200 13805.0000 1.0000
32.4400 13650.0000 1.0000
32.4600 13962.0000 1.0000
32.4800 13829.0000 1.0000
32.5000 13854.0000 1.0000
32.5200 13881.0000 1.0000
32.5400 13832.0000 1.0000
32.5600 13667.0000 1.0000
32.5800 13953.0000 1.0000
32.6000 13909.0000 1.0000
32.6200 13868.0000 1.0000
32.6400 13686.0000 1.0000
32.6600 13818.0000 1.0000
32.6800 13730.0000 1.0000
32.7000 13931.0000 1.0000
32.7200 13862.0000 1.0000
32.7400 13785.0000 1.0000
32.7600 13918.0000 1.0000
32.7800 14019.0000 1.0000
32.8000 13897.0000 1.0000
32.8200 13848.0000 1.0000
32.8400 13998.0000 1.0000
32.8600 14162.0000 1.0000
32.8800 14340.0000 1.0000
32.9000 14267.0000 1.0000
32.9200 14167.0000 1.0000
32.9400 14261.0000 1.0000
32.9600 14689.0000 1.0000
32.9800 14821.0000 1.0000
33.0000 15016.0000 1.0000
33.0200 15547.0000 1.0000
33.0400 16012.0000 1.0000
33.0600 16506.0000 1.0000
33.0800 17237.0000 1.0000
33.1000 18777.0000 1.0000
33.1200 20224.0000 1.0000
33.1400 21875.0000 1.0000
33.1600 23001.0000 1.0000
33.1800 23028.0000 1.0000
33.2000 22037.0000 1.0000
33.2200 20879.0000 1.0000
33.2400 20209.0000 1.0000
33.2600 19145.0000 1.0000
33.2800 17972.0000 1.0000
33.3000 16766.0000 1.0000
33.3200 15851.0000 1.0000
33.3400 15171.0000 1.0000
33.3600 15020.0000 1.0000
33.3800 14496.0000 1.0000
33.4000 14362.0000 1.0000
33.4200 14117.0000 1.0000
33.4400 14070.0000 1.0000
33.4600 14211.0000 1.0000
33.4800 14174.0000 1.0000
33.5000 14063.0000 1.0000
33.5200 13909.0000 1.0000
33.5400 13822.0000 1.0000
33.5600 13900.0000 1.0000
33.5800 13975.0000 1.0000
33.6000 13850.0000 1.0000
33.6200 13753.0000 1.0000
33.6400 13899.0000 1.0000
33.6600 13730.0000 1.0000
33.6800 13926.0000 1.0000
33.7000 13846.0000 1.0000
33.7200 13885.0000 1.0000
33.7400 13837.0000 1.0000
33.7600 13749.0000 1.0000
33.7800 13714.0000 1.0000
33.8000 13751.0000 1.0000
33.8200 13626.0000 1.0000
33.8400 13929.0000 1.0000
33.8600 13854.0000 1.0000
33.8800 13697.0000 1.0000
33.9000 14056.0000 1.0000
33.9200 14036.0000 1.0000
33.9400 13591.0000 1.0000
33.9600 13721.0000 1.0000
33.9800 13600.0000 1.0000
34.0000 13480.0000 1.0000
34.0200 13571.0000 1.0000
34.0400 13794.0000 1.0000
34.0600 13682.0000 1.0000
34.0800 13875.0000 1.0000
34.1000 13883.0000 1.0000
34.1200 13802.0000 1.0000
34.1400 13688.0000 1.0000
34.1600 13854.0000 1.0000
34.1800 13591.0000 1.0000
34.2000 13735.0000 1.0000
34.2200 13712.0000 1.0000
34.2400 13693.0000 1.0000
34.2600 13714.0000 1.0000
34.2800 13824.0000 1.0000
34.3000 13874.0000 1.0000
34.3200 13868.0000 1.0000
34.3400 13808.0000 1.0000
34.3600 13854.0000 1.0000
34.3800 13874.0000 1.0000
34.4000 13702.0000 1.0000
34.4200 13822.0000 1.0000
34.4400 13773.0000 1.0000
34.4600 13962.0000 1.0000
34.4800 13795.0000 1.0000
34.5000 13810.0000 1.0000
34.5200 13734.0000 1.0000
34.5400 13792.0000 1.0000
34.5600 13759.0000 1.0000
34.5800 13982.0000 1.0000
34.6000 13748.0000 1.0000
34.6200 13821.0000 1.0000
34.6400 13957.0000 1.0000
34.6600 13847.0000 1.0000
34.6800 13921.0000 1.0000
34.7000 13921.0000 1.0000
34.7200 13977.0000 1.0000
34.7400 13926.0000 1.0000
34.7600 13873.0000 1.0000
34.7800 13943.0000 1.0000
34.8000 13793.0000 1.0000
34.8200 13880.0000 1.0000
34.8400 14002.0000 1.0000
34.8600 13904.0000 1.0000
34.8800 13862.0000 1.0000
34.9000 13966.0000 1.0000
34.9200 13791.0000 1.0000
34.9400 13867.0000 1.0000
34.9600 13995.0000 1.0000
34.9800 14168.0000 1.0000
35.0000 14151.0000 1.0000
35.0200 14370.0000 1.0000
35.0400 14552.0000 1.0000
35.0600 14492.0000 1.0000
35.0800 14742.0000 1.0000
35.1000 14885.0000 1.0000
35.1200 15160.0000 1.0000
35.1400 15217.0000 1.0000
35.1600 15567.0000 1.0000
35.1800 15554.0000 1.0000
35.2000 15438.0000 1.0000
35.2200 15413.0000 1.0000
35.2400 15637.0000 1.0000
35.2600 15607.0000 1.0000
35.2800 15716.0000 1.0000
35.3000 15837.0000 1.0000
35.3200 15873.0000 1.0000
35.3400 16235.0000 1.0000
35.3600 17253.0000 1.0000
35.3800 18316.0000 1.0000
35.4000 19581.0000 1.0000
35.4200 21666.0000 1.0000
35.4400 24150.0000 1.0000
35.4600 26283.0000 1.0000
35.4800 27984.0000 1.0000
35.5000 28381.0000 1.0000
35.5200 28071.0000 1.0000
35.5400 27582.0000 1.0000
35.5600 27194.0000 1.0000
35.5800 27608.0000 1.0000
35.6000 27013.0000 1.0000
35.6200 26323.0000 1.0000
35.6400 25534.0000 1.0000
35.6600 23845.0000 1.0000
35.6800 21879.0000 1.0000
35.7000 20618.0000 1.0000
35.7200 19837.0000 1.0000
35.7400 19017.0000 1.0000
35.7600 18002.0000 1.0000
35.7800 16751.0000 1.0000
35.8000 15828.0000 1.0000
35.8200 15342.0000 1.0000
35.8400 15072.0000 1.0000
35.8600 15065.0000 1.0000
35.8800 14651.0000 1.0000
35.9000 14211.0000 1.0000
35.9200 14287.0000 1.0000
35.9400 14226.0000 1.0000
35.9600 14181.0000 1.0000
35.9800 13894.0000 1.0000
36.0000 14196.0000 1.0000
36.0200 13959.0000 1.0000
36.0400 14149.0000 1.0000
36.0600 13912.0000 1.0000
36.0800 13988.0000 1.0000
36.1000 13789.0000 1.0000
36.1200 13954.0000 1.0000
36.1400 13982.0000 1.0000
36.1600 13984.0000 1.0000
36.1800 13874.0000 1.0000
36.2000 13769.0000 1.0000
36.2200 13776.0000 1.0000
36.2400 13967.0000 1.0000
36.2600 13781.0000 1.0000
36.2800 13860.0000 1.0000
36.3000 13925.0000 1.0000
36.3200 13703.0000 1.0000
36.3400 13761.0000 1.0000
36.3600 13762.0000 1.0000
36.3800 13708.0000 1.0000
36.4000 13967.0000 1.0000
36.4200 13930.0000 1.0000
36.4400 13943.0000 1.0000
36.4600 13890.0000 1.0000
36.4800 13752.0000 1.0000
36.5000 13858.0000 1.0000
36.5200 13825.0000 1.0000
36.5400 14308.0000 1.0000
36.5600 14073.0000 1.0000
36.5800 13881.0000 1.0000
36.6000 13894.0000 1.0000
36.6200 13862.0000 1.0000
36.6400 14050.0000 1.0000
36.6600 13944.0000 1.0000
36.6800 13829.0000 1.0000
36.7000 13872.0000 1.0000
36.7200 13473.0000 1.0000
36.7400 13935.0000 1.0000
36.7600 13679.0000 1.0000
36.7800 13839.0000 1.0000
36.8000 13865.0000 1.0000
36.8200 13601.0000 1.0000
36.8400 13670.0000 1.0000
36.8600 13495.0000 1.0000
36.8800 13605.0000 1.0000
36.9000 13690.0000 1.0000
36.9200 13835.0000 1.0000
36.9400 13648.0000 1.0000
36.9600 13865.0000 1.0000
36.9800 13905.0000 1.0000
37.0000 13973.0000 1.0000
37.0200 13943.0000 1.0000
37.0400 14014.0000 1.0000
37.0600 13976.0000 1.0000
37.0800 14252.0000 1.0000
37.1000 14584.0000 1.0000
37.1200 14403.0000 1.0000
37.1400 14416.0000 1.0000
37.1600 14618.0000 1.0000
37.1800 14130.0000 1.0000
37.2000 14387.0000 1.0000
37.2200 14257.0000 1.0000
37.2400 14040.0000 1.0000
37.2600 13955.0000 1.0000
37.2800 13806.0000 1.0000
37.3000 13713.0000 1.0000
37.3200 13658.0000 1.0000
37.3400 13690.0000 1.0000
37.3600 13476.0000 1.0000
37.3800 13634.0000 1.0000
37.4000 13641.0000 1.0000
37.4200 13565.0000 1.0000
37.4400 13698.0000 1.0000
37.4600 13451.0000 1.0000
37.4800 13623.0000 1.0000
37.5000 13757.0000 1.0000
37.5200 13510.0000 1.0000
37.5400 13533.0000 1.0000
37.5600 13624.0000 1.0000
37.5800 13770.0000 1.0000
37.6000 13924.0000 1.0000
37.6200 13544.0000 1.0000
37.6400 13717.0000 1.0000
37.6600 13626.0000 1.0000
37.6800 13919.0000 1.0000
37.7000 13938.0000 1.0000
37.7200 14095.0000 1.0000
37.7400 13980.0000 1.0000
37.7600 14015.0000 1.0000
37.7800 14198.0000 1.0000
37.8000 14224.0000 1.0000
37.8200 14105.0000 1.0000
37.8400 13971.0000 1.0000
37.8600 14009.0000 1.0000
37.8800 13839.0000 1.0000
37.9000 14085.0000 1.0000
37.9200 13596.0000 1.0000
37.9400 13728.0000 1.0000
37.9600 13728.0000 1.0000
37.9800 13738.0000 1.0000
38.0000 13771.0000 1.0000
38.0200 13811.0000 1.0000
38.0400 13539.0000 1.0000
38.0600 13594.0000 1.0000
38.0800 13615.0000 1.0000
38.1000 13509.0000 1.0000
38.1200 13615.0000 1.0000
38.1400 13563.0000 1.0000
38.1600 13715.0000 1.0000
38.1800 13611.0000 1.0000
38.2000 13819.0000 1.0000
38.2200 13600.0000 1.0000
38.2400 13676.0000 1.0000
38.2600 13730.0000 1.0000
38.2800 13607.0000 1.0000
38.3000 13613.0000 1.0000
38.3200 13566.0000 1.0000
38.3400 13409.0000 1.0000
38.3600 13407.0000 1.0000
38.3800 13525.0000 1.0000
38.4000 13465.0000 1.0000
38.4200 13552.0000 1.0000
38.4400 13474.0000 1.0000
38.4600 13755.0000 1.0000
38.4800 13599.0000 1.0000
38.5000 13696.0000 1.0000
38.5200 13560.0000 1.0000
38.5400 13517.0000 1.0000
38.5600 13671.0000 1.0000
38.5800 13590.0000 1.0000
38.6000 13645.0000 1.0000
38.6200 13608.0000 1.0000
38.6400 13598.0000 1.0000
38.6600 13522.0000 1.0000
38.6800 13753.0000 1.0000
38.7000 13637.0000 1.0000
38.7200 13509.0000 1.0000
38.7400 13605.0000 1.0000
38.7600 13840.0000 1.0000
38.7800 13756.0000 1.0000
38.8000 13854.0000 1.0000
38.8200 13597.0000 1.0000
38.8400 13498.0000 1.0000
38.8600 13604.0000 1.0000
38.8800 13714.0000 1.0000
38.9000 13441.0000 1.0000
38.9200 13540.0000 1.0000
38.9400 13555.0000 1.0000
38.9600 13671.0000 1.0000
38.9800 13700.0000 1.0000
39.0000 13550.0000 1.0000
39.0200 13548.0000 1.0000
39.0400 13669.0000 1.0000
39.0600 13643.0000 1.0000
39.0800 13826.0000 1.0000
39.1000 13446.0000 1.0000
39.1200 13556.0000 1.0000
39.1400 13540.0000 1.0000
39.1600 13896.0000 1.0000
39.1800 13864.0000 1.0000
39.2000 13801.0000 1.0000
39.2200 13600.0000 1.0000
39.2400 13771.0000 1.0000
39.2600 13664.0000 1.0000
39.2800 13652.0000 1.0000
39.3000 13803.0000 1.0000
39.3200 13654.0000 1.0000
39.3400 13688.0000 1.0000
39.3600 13700.0000 1.0000
39.3800 13866.0000 1.0000
39.4000 13750.0000 1.0000
39.4200 13787.0000 1.0000
39.4400 13613.0000 1.0000
39.4600 13823.0000 1.0000
39.4800 13989.0000 1.0000
39.5000 13783.0000 1.0000
39.5200 13783.0000 1.0000
39.5400 13631.0000 1.0000
39.5600 13679.0000 1.0000
39.5800 13548.0000 1.0000
39.6000 13609.0000 1.0000
39.6200 13463.0000 1.0000
39.6400 13838.0000 1.0000
39.6600 13520.0000 1.0000
39.6800 13649.0000 1.0000
39.7000 13590.0000 1.0000
39.7200 13730.0000 1.0000
39.7400 13696.0000 1.0000
39.7600 13420.0000 1.0000
39.7800 13507.0000 1.0000
39.8000 13507.0000 1.0000
39.8200 13559.0000 1.0000
39.8400 13470.0000 1.0000
39.8600 13543.0000 1.0000
39.8800 13584.0000 1.0000
39.9000 13701.0000 1.0000
39.9200 13394.0000 1.0000
39.9400 13572.0000 1.0000
39.9600 13542.0000 1.0000
39.9800 13461.0000 1.0000
40.0000 13513.0000 1.0000
40.0200 13580.0000 1.0000
40.0400 13400.0000 1.0000
40.0600 13553.0000 1.0000
40.0800 13474.0000 1.0000
40.1000 13632.0000 1.0000
40.1200 13465.0000 1.0000
40.1400 13794.0000 1.0000
40.1600 13628.0000 1.0000
40.1800 13638.0000 1.0000
40.2000 13879.0000 1.0000
40.2200 13696.0000 1.0000
40.2400 13823.0000 1.0000
40.2600 13795.0000 1.0000
40.2800 13934.0000 1.0000
40.3000 14004.0000 1.0000
40.3200 13921.0000 1.0000
40.3400 14004.0000 1.0000
40.3600 13737.0000 1.0000
40.3800 13896.0000 1.0000
40.4000 13972.0000 1.0000
40.4200 13850.0000 1.0000
40.4400 13577.0000 1.0000
40.4600 13590.0000 1.0000
40.4800 13597.0000 1.0000
40.5000 13651.0000 1.0000
40.5200 13805.0000 1.0000
40.5400 13740.0000 1.0000
40.5600 13695.0000 1.0000
40.5800 13674.0000 1.0000
40.6000 13783.0000 1.0000
40.6200 13870.0000 1.0000
40.6400 13795.0000 1.0000
40.6600 14005.0000 1.0000
40.6800 13836.0000 1.0000
40.7000 13853.0000 1.0000
40.7200 13906.0000 1.0000
40.7400 13995.0000 1.0000
40.7600 14179.0000 1.0000
40.7800 14507.0000 1.0000
40.8000 14447.0000 1.0000
40.8200 14873.0000 1.0000
40.8400 15282.0000 1.0000
40.8600 15459.0000 1.0000
40.8800 15628.0000 1.0000
40.9000 15300.0000 1.0000
40.9200 14999.0000 1.0000
40.9400 14807.0000 1.0000
40.9600 14917.0000 1.0000
40.9800 14810.0000 1.0000
41.0000 14519.0000 1.0000
41.0200 14377.0000 1.0000
41.0400 14107.0000 1.0000
41.0600 14064.0000 1.0000
41.0800 13890.0000 1.0000
41.1000 13740.0000 1.0000
41.1200 13810.0000 1.0000
41.1400 13767.0000 1.0000
41.1600 13745.0000 1.0000
41.1800 13721.0000 1.0000
41.2000 13537.0000 1.0000
41.2200 13430.0000 1.0000
41.2400 13682.0000 1.0000
41.2600 13879.0000 1.0000
41.2800 13709.0000 1.0000
41.3000 13569.0000 1.0000
41.3200 13682.0000 1.0000
41.3400 13508.0000 1.0000
41.3600 13445.0000 1.0000
41.3800 13625.0000 1.0000
41.4000 13560.0000 1.0000
41.4200 13467.0000 1.0000
41.4400 13772.0000 1.0000
41.4600 13457.0000 1.0000
41.4800 13522.0000 1.0000
41.5000 13527.0000 1.0000
41.5200 13450.0000 1.0000
41.5400 13457.0000 1.0000
41.5600 13596.0000 1.0000
41.5800 13761.0000 1.0000
41.6000 13467.0000 1.0000
41.6200 13331.0000 1.0000
41.6400 13605.0000 1.0000
41.6600 13645.0000 1.0000
41.6800 13633.0000 1.0000
41.7000 13562.0000 1.0000
41.7200 13592.0000 1.0000
41.7400 13450.0000 1.0000
41.7600 13574.0000 1.0000
41.7800 13534.0000 1.0000
41.8000 13875.0000 1.0000
41.8200 13579.0000 1.0000
41.8400 13655.0000 1.0000
41.8600 13678.0000 1.0000
41.8800 13469.0000 1.0000
41.9000 13586.0000 1.0000
41.9200 13656.0000 1.0000
41.9400 13463.0000 1.0000
41.9600 13715.0000 1.0000
41.9800 13653.0000 1.0000
42.0000 13582.0000 1.0000
42.0200 13477.0000 1.0000
42.0400 13514.0000 1.0000
42.0600 13638.0000 1.0000
42.0800 13638.0000 1.0000
42.1000 13401.0000 1.0000
42.1200 13620.0000 1.0000
42.1400 13591.0000 1.0000
42.1600 13717.0000 1.0000
42.1800 13623.0000 1.0000
42.2000 13599.0000 1.0000
42.2200 13606.0000 1.0000
42.2400 13565.0000 1.0000
42.2600 13623.0000 1.0000
42.2800 13498.0000 1.0000
42.3000 13446.0000 1.0000
42.3200 13732.0000 1.0000
42.3400 13647.0000 1.0000
42.3600 13653.0000 1.0000
42.3800 13670.0000 1.0000
42.4000 13671.0000 1.0000
42.4200 13833.0000 1.0000
42.4400 13719.0000 1.0000
42.4600 13750.0000 1.0000
42.4800 13688.0000 1.0000
42.5000 13888.0000 1.0000
42.5200 13812.0000 1.0000
42.5400 13838.0000 1.0000
42.5600 13588.0000 1.0000
42.5800 13481.0000 1.0000
42.6000 13396.0000 1.0000
42.6200 13653.0000 1.0000
42.6400 13574.0000 1.0000
42.6600 13491.0000 1.0000
42.6800 13599.0000 1.0000
42.7000 13564.0000 1.0000
42.7200 13489.0000 1.0000
42.7400 13544.0000 1.0000
42.7600 13566.0000 1.0000
42.7800 13727.0000 1.0000
42.8000 13658.0000 1.0000
42.8200 13594.0000 1.0000
42.8400 13741.0000 1.0000
42.8600 13834.0000 1.0000
42.8800 13811.0000 1.0000
42.9000 13790.0000 1.0000
42.9200 13722.0000 1.0000
42.9400 13624.0000 1.0000
42.9600 14026.0000 1.0000
42.9800 13986.0000 1.0000
43.0000 14137.0000 1.0000
43.0200 14272.0000 1.0000
43.0400 14640.0000 1.0000
43.0600 15115.0000 1.0000
43.0800 15704.0000 1.0000
43.1000 16123.0000 1.0000
43.1200 16358.0000 1.0000
43.1400 16401.0000 1.0000
43.1600 16117.0000 1.0000
43.1800 16060.0000 1.0000
43.2000 16064.0000 1.0000
43.2200 15923.0000 1.0000
43.2400 15852.0000 1.0000
43.2600 15772.0000 1.0000
43.2800 15645.0000 1.0000
43.3000 15565.0000 1.0000
43.3200 15464.0000 1.0000
43.3400 15545.0000 1.0000
43.3600 15327.0000 1.0000
43.3800 15131.0000 1.0000
43.4000 14962.0000 1.0000
43.4200 14691.0000 1.0000
43.4400 14570.0000 1.0000
43.4600 14590.0000 1.0000
43.4800 14573.0000 1.0000
43.5000 14465.0000 1.0000
43.5200 14389.0000 1.0000
43.5400 14270.0000 1.0000
43.5600 13858.0000 1.0000
43.5800 13936.0000 1.0000
43.6000 13945.0000 1.0000
43.6200 13792.0000 1.0000
43.6400 13686.0000 1.0000
43.6600 13751.0000 1.0000
43.6800 13596.0000 1.0000
43.7000 13631.0000 1.0000
43.7200 13718.0000 1.0000
43.7400 13728.0000 1.0000
43.7600 13539.0000 1.0000
43.7800 13335.0000 1.0000
43.8000 13600.0000 1.0000
43.8200 13728.0000 1.0000
43.8400 13536.0000 1.0000
43.8600 13446.0000 1.0000
43.8800 13623.0000 1.0000
43.9000 13404.0000 1.0000
43.9200 13554.0000 1.0000
43.9400 13502.0000 1.0000
43.9600 13691.0000 1.0000
43.9800 13521.0000 1.0000
44.0000 13246.0000 1.0000
44.0200 13469.0000 1.0000
44.0400 13529.0000 1.0000
44.0600 13519.0000 1.0000
44.0800 13423.0000 1.0000
44.1000 13554.0000 1.0000
44.1200 13561.0000 1.0000
44.1400 13376.0000 1.0000
44.1600 13517.0000 1.0000
44.1800 13399.0000 1.0000
44.2000 13495.0000 1.0000
44.2200 13390.0000 1.0000
44.2400 13326.0000 1.0000
44.2600 13339.0000 1.0000
44.2800 13401.0000 1.0000
44.3000 13502.0000 1.0000
44.3200 13462.0000 1.0000
44.3400 13554.0000 1.0000
44.3600 13546.0000 1.0000
44.3800 13351.0000 1.0000
44.4000 13479.0000 1.0000
44.4200 13496.0000 1.0000
44.4400 13574.0000 1.0000
44.4600 13590.0000 1.0000
44.4800 13367.0000 1.0000
44.5000 13307.0000 1.0000
44.5200 13471.0000 1.0000
44.5400 13299.0000 1.0000
44.5600 13591.0000 1.0000
44.5800 13609.0000 1.0000
44.6000 13559.0000 1.0000
44.6200 13233.0000 1.0000
44.6400 13524.0000 1.0000
44.6600 13663.0000 1.0000
44.6800 13403.0000 1.0000
44.7000 13346.0000 1.0000
44.7200 13661.0000 1.0000
44.7400 13438.0000 1.0000
44.7600 13512.0000 1.0000
44.7800 13306.0000 1.0000
44.8000 13385.0000 1.0000
44.8200 13338.0000 1.0000
44.8400 13480.0000 1.0000
44.8600 13620.0000 1.0000
44.8800 13366.0000 1.0000
44.9000 13475.0000 1.0000
44.9200 13484.0000 1.0000
44.9400 13360.0000 1.0000
44.9600 13558.0000 1.0000
44.9800 13532.0000 1.0000
45.0000 13532.0000 1.0000
45.0200 13436.0000 1.0000
45.0400 13376.0000 1.0000
45.0600 13459.0000 1.0000
45.0800 13608.0000 1.0000
45.1000 13553.0000 1.0000
45.1200 13554.0000 1.0000
45.1400 13543.0000 1.0000
45.1600 13441.0000 1.0000
45.1800 13315.0000 1.0000
45.2000 13434.0000 1.0000
45.2200 13467.0000 1.0000
45.2400 13435.0000 1.0000
45.2600 13254.0000 1.0000
45.2800 13403.0000 1.0000
45.3000 13480.0000 1.0000
45.3200 13471.0000 1.0000
45.3400 13435.0000 1.0000
45.3600 13605.0000 1.0000
45.3800 13440.0000 1.0000
45.4000 13560.0000 1.0000
45.4200 13586.0000 1.0000
45.4400 13416.0000 1.0000
45.4600 13346.0000 1.0000
45.4800 13301.0000 1.0000
45.5000 13323.0000 1.0000
45.5200 13387.0000 1.0000
45.5400 13188.0000 1.0000
45.5600 13349.0000 1.0000
45.5800 13503.0000 1.0000
45.6000 13408.0000 1.0000
45.6200 13434.0000 1.0000
45.6400 13426.0000 1.0000
45.6600 13459.0000 1.0000
45.6800 13479.0000 1.0000
45.7000 13391.0000 1.0000
45.7200 13437.0000 1.0000
45.7400 13356.0000 1.0000
45.7600 13458.0000 1.0000
45.7800 13590.0000 1.0000
45.8000 13496.0000 1.0000
45.8200 13591.0000 1.0000
45.8400 13338.0000 1.0000
45.8600 13481.0000 1.0000
45.8800 13534.0000 1.0000
45.9000 13771.0000 1.0000
45.9200 13526.0000 1.0000
45.9400 13557.0000 1.0000
45.9600 13421.0000 1.0000
45.9800 13659.0000 1.0000
46.0000 13285.0000 1.0000
46.0200 13478.0000 1.0000
46.0400 13338.0000 1.0000
46.0600 13314.0000 1.0000
46.0800 13412.0000 1.0000
46.1000 13257.0000 1.0000
46.1200 13529.0000 1.0000
46.1400 13833.0000 1.0000
46.1600 13423.0000 1.0000
46.1800 13477.0000 1.0000
46.2000 13322.0000 1.0000
46.2200 13523.0000 1.0000
46.2400 13317.0000 1.0000
46.2600 13328.0000 1.0000
46.2800 13597.0000 1.0000
46.3000 13423.0000 1.0000
46.3200 13623.0000 1.0000
46.3400 13615.0000 1.0000
46.3600 13637.0000 1.0000
46.3800 13350.0000 1.0000
46.4000 13387.0000 1.0000
46.4200 13497.0000 1.0000
46.4400 13580.0000 1.0000
46.4600 13636.0000 1.0000
46.4800 13745.0000 1.0000
46.5000 13506.0000 1.0000
46.5200 13432.0000 1.0000
46.5400 13286.0000 1.0000
46.5600 13277.0000 1.0000
46.5800 13629.0000 1.0000
46.6000 13390.0000 1.0000
46.6200 13357.0000 1.0000
46.6400 13499.0000 1.0000
46.6600 13509.0000 1.0000
46.6800 13485.0000 1.0000
46.7000 13501.0000 1.0000
46.7200 13378.0000 1.0000
46.7400 13399.0000 1.0000
46.7600 13479.0000 1.0000
46.7800 13313.0000 1.0000
46.8000 13559.0000 1.0000
46.8200 13387.0000 1.0000
46.8400 13649.0000 1.0000
46.8600 13468.0000 1.0000
46.8800 13644.0000 1.0000
46.9000 13317.0000 1.0000
46.9200 13498.0000 1.0000
46.9400 13512.0000 1.0000
46.9600 13371.0000 1.0000
46.9800 13338.0000 1.0000
47.0000 13553.0000 1.0000
47.0200 13381.0000 1.0000
47.0400 13515.0000 1.0000
47.0600 13371.0000 1.0000
47.0800 13429.0000 1.0000
47.1000 13145.0000 1.0000
47.1200 13424.0000 1.0000
47.1400 13358.0000 1.0000
47.1600 13368.0000 1.0000
47.1800 13264.0000 1.0000
47.2000 13257.0000 1.0000
47.2200 13450.0000 1.0000
47.2400 13276.0000 1.0000
47.2600 13380.0000 1.0000
47.2800 13261.0000 1.0000
47.3000 13358.0000 1.0000
47.3200 13272.0000 1.0000
47.3400 13446.0000 1.0000
47.3600 13622.0000 1.0000
47.3800 13402.0000 1.0000
47.4000 13426.0000 1.0000
47.4200 13555.0000 1.0000
47.4400 13528.0000 1.0000
47.4600 13439.0000 1.0000
47.4800 13489.0000 1.0000
47.5000 13523.0000 1.0000
47.5200 13672.0000 1.0000
47.5400 13426.0000 1.0000
47.5600 13598.0000 1.0000
47.5800 13507.0000 1.0000
47.6000 13494.0000 1.0000
47.6200 13281.0000 1.0000
47.6400 13566.0000 1.0000
47.6600 13421.0000 1.0000
47.6800 13381.0000 1.0000
47.7000 13310.0000 1.0000
47.7200 13478.0000 1.0000
47.7400 13337.0000 1.0000
47.7600 13531.0000 1.0000
47.7800 13371.0000 1.0000
47.8000 13373.0000 1.0000
47.8200 13443.0000 1.0000
47.8400 13601.0000 1.0000
47.8600 13484.0000 1.0000
47.8800 13558.0000 1.0000
47.9000 13523.0000 1.0000
47.9200 13537.0000 1.0000
47.9400 13271.0000 1.0000
47.9600 13411.0000 1.0000
47.9800 13466.0000 1.0000
48.0000 13553.0000 1.0000
48.0200 13417.0000 1.0000
48.0400 13440.0000 1.0000
48.0600 13486.0000 1.0000
48.0800 13703.0000 1.0000
48.1000 13532.0000 1.0000
48.1200 13247.0000 1.0000
48.1400 13573.0000 1.0000
48.1600 13450.0000 1.0000
48.1800 13356.0000 1.0000
48.2000 13290.0000 1.0000
48.2200 13586.0000 1.0000
48.2400 13458.0000 1.0000
48.2600 13496.0000 1.0000
48.2800 13554.0000 1.0000
48.3000 13410.0000 1.0000
48.3200 13412.0000 1.0000
48.3400 13611.0000 1.0000
48.3600 13346.0000 1.0000
48.3800 13333.0000 1.0000
48.4000 13474.0000 1.0000
48.4200 13633.0000 1.0000
48.4400 13514.0000 1.0000
48.4600 13289.0000 1.0000
48.4800 13353.0000 1.0000
48.5000 13399.0000 1.0000
48.5200 13402.0000 1.0000
48.5400 13553.0000 1.0000
48.5600 13520.0000 1.0000
48.5800 13512.0000 1.0000
48.6000 13440.0000 1.0000
48.6200 13306.0000 1.0000
48.6400 13599.0000 1.0000
48.6600 13490.0000 1.0000
48.6800 13456.0000 1.0000
48.7000 13729.0000 1.0000
48.7200 13285.0000 1.0000
48.7400 13455.0000 1.0000
48.7600 13619.0000 1.0000
48.7800 13401.0000 1.0000
48.8000 13795.0000 1.0000
48.8200 13551.0000 1.0000
48.8400 13373.0000 1.0000
48.8600 13399.0000 1.0000
48.8800 13333.0000 1.0000
48.9000 13432.0000 1.0000
48.9200 13360.0000 1.0000
48.9400 13269.0000 1.0000
48.9600 13623.0000 1.0000
48.9800 13505.0000 1.0000
49.0000 13621.0000 1.0000
49.0200 13581.0000 1.0000
49.0400 13541.0000 1.0000
49.0600 13489.0000 1.0000
49.0800 13621.0000 1.0000
49.1000 13615.0000 1.0000
49.1200 13391.0000 1.0000
49.1400 13507.0000 1.0000
49.1600 13383.0000 1.0000
49.1800 13467.0000 1.0000
49.2000 13587.0000 1.0000
49.2200 13808.0000 1.0000
49.2400 13727.0000 1.0000
49.2600 13717.0000 1.0000
49.2800 13729.0000 1.0000
49.3000 13780.0000 1.0000
49.3200 14112.0000 1.0000
49.3400 14372.0000 1.0000
49.3600 14405.0000 1.0000
49.3800 14768.0000 1.0000
49.4000 15161.0000 1.0000
49.4200 15672.0000 1.0000
49.4400 16090.0000 1.0000
49.4600 16545.0000 1.0000
49.4800 16509.0000 1.0000
49.5000 16083.0000 1.0000
49.5200 15859.0000 1.0000
49.5400 15513.0000 1.0000
49.5600 15458.0000 1.0000
49.5800 15453.0000 1.0000
49.6000 15125.0000 1.0000
49.6200 14880.0000 1.0000
49.6400 14794.0000 1.0000
49.6600 14399.0000 1.0000
49.6800 14205.0000 1.0000
49.7000 14012.0000 1.0000
49.7200 13765.0000 1.0000
49.7400 13892.0000 1.0000
49.7600 13644.0000 1.0000
49.7800 13644.0000 1.0000
49.8000 13769.0000 1.0000
49.8200 13454.0000 1.0000
49.8400 13581.0000 1.0000
49.8600 13618.0000 1.0000
49.8800 13591.0000 1.0000
49.9000 13506.0000 1.0000
49.9200 13607.0000 1.0000
49.9400 13634.0000 1.0000
49.9600 13505.0000 1.0000
49.9800 13600.0000 1.0000
50.0000 13471.0000 1.0000
50.0200 13477.0000 1.0000
50.0400 13435.0000 1.0000
50.0600 13654.0000 1.0000
50.0800 13537.0000 1.0000
50.1000 13649.0000 1.0000
50.1200 13929.0000 1.0000
50.1400 14099.0000 1.0000
50.1600 14207.0000 1.0000
50.1800 14458.0000 1.0000
50.2000 14328.0000 1.0000
50.2200 13892.0000 1.0000
50.2400 13851.0000 1.0000
50.2600 13872.0000 1.0000
50.2800 13871.0000 1.0000
50.3000 13815.0000 1.0000
50.3200 13947.0000 1.0000
50.3400 14026.0000 1.0000
50.3600 13621.0000 1.0000
50.3800 13397.0000 1.0000
50.4000 13634.0000 1.0000
50.4200 13588.0000 1.0000
50.4400 13228.0000 1.0000
50.4600 13303.0000 1.0000
50.4800 13301.0000 1.0000
50.5000 13536.0000 1.0000
50.5200 13535.0000 1.0000
50.5400 13559.0000 1.0000
50.5600 13447.0000 1.0000
50.5800 13392.0000 1.0000
50.6000 13463.0000 1.0000
50.6200 13456.0000 1.0000
50.6400 13574.0000 1.0000
50.6600 13410.0000 1.0000
50.6800 13281.0000 1.0000
50.7000 13369.0000 1.0000
50.7200 13459.0000 1.0000
50.7400 13388.0000 1.0000
50.7600 13445.0000 1.0000
50.7800 13469.0000 1.0000
50.8000 13591.0000 1.0000
50.8200 13445.0000 1.0000
50.8400 13435.0000 1.0000
50.8600 13457.0000 1.0000
50.8800 13594.0000 1.0000
50.9000 13233.0000 1.0000
50.9200 13341.0000 1.0000
50.9400 13360.0000 1.0000
50.9600 13642.0000 1.0000
50.9800 13715.0000 1.0000
51.0000 13591.0000 1.0000
51.0200 13330.0000 1.0000
51.0400 13539.0000 1.0000
51.0600 13321.0000 1.0000
51.0800 13533.0000 1.0000
51.1000 13455.0000 1.0000
51.1200 13436.0000 1.0000
51.1400 13635.0000 1.0000
51.1600 13267.0000 1.0000
51.1800 13473.0000 1.0000
51.2000 13505.0000 1.0000
51.2200 13564.0000 1.0000
51.2400 13576.0000 1.0000
51.2600 13289.0000 1.0000
51.2800 13395.0000 1.0000
51.3000 13512.0000 1.0000
51.3200 13574.0000 1.0000
51.3400 13355.0000 1.0000
51.3600 13483.0000 1.0000
51.3800 13370.0000 1.0000
51.4000 13495.0000 1.0000
51.4200 13424.0000 1.0000
51.4400 13400.0000 1.0000
51.4600 13590.0000 1.0000
51.4800 13427.0000 1.0000
51.5000 13567.0000 1.0000
51.5200 13447.0000 1.0000
51.5400 13538.0000 1.0000
51.5600 13774.0000 1.0000
51.5800 13443.0000 1.0000
51.6000 13467.0000 1.0000
51.6200 13516.0000 1.0000
51.6400 13478.0000 1.0000
51.6600 13495.0000 1.0000
51.6800 13557.0000 1.0000
51.7000 13485.0000 1.0000
51.7200 13402.0000 1.0000
51.7400 13522.0000 1.0000
51.7600 13492.0000 1.0000
51.7800 13468.0000 1.0000
51.8000 13581.0000 1.0000
51.8200 13349.0000 1.0000
51.8400 13417.0000 1.0000
51.8600 13418.0000 1.0000
51.8800 13486.0000 1.0000
51.9000 13359.0000 1.0000
51.9200 13297.0000 1.0000
51.9400 13400.0000 1.0000
51.9600 13363.0000 1.0000
51.9800 13242.0000 1.0000
52.0000 13396.0000 1.0000
52.0200 13512.0000 1.0000
52.0400 13288.0000 1.0000
52.0600 13631.0000 1.0000
52.0800 13384.0000 1.0000
52.1000 13476.0000 1.0000
52.1200 13568.0000 1.0000
52.1400 13304.0000 1.0000
52.1600 13419.0000 1.0000
52.1800 13540.0000 1.0000
52.2000 13596.0000 1.0000
52.2200 13310.0000 1.0000
52.2400 13568.0000 1.0000
52.2600 13580.0000 1.0000
52.2800 13521.0000 1.0000
52.3000 13661.0000 1.0000
52.3200 13604.0000 1.0000
52.3400 13473.0000 1.0000
52.3600 13571.0000 1.0000
52.3800 13683.0000 1.0000
52.4000 13396.0000 1.0000
52.4200 13608.0000 1.0000
52.4400 13594.0000 1.0000
52.4600 13781.0000 1.0000
52.4800 13760.0000 1.0000
52.5000 13934.0000 1.0000
52.5200 13966.0000 1.0000
52.5400 14075.0000 1.0000
52.5600 14055.0000 1.0000
52.5800 13927.0000 1.0000
52.6000 13819.0000 1.0000
52.6200 13717.0000 1.0000
52.6400 13607.0000 1.0000
52.6600 13919.0000 1.0000
52.6800 13734.0000 1.0000
52.7000 13750.0000 1.0000
52.7200 13786.0000 1.0000
52.7400 13566.0000 1.0000
52.7600 13556.0000 1.0000
52.7800 13539.0000 1.0000
52.8000 13602.0000 1.0000
52.8200 13473.0000 1.0000
52.8400 13301.0000 1.0000
52.8600 13401.0000 1.0000
52.8800 13529.0000 1.0000
52.9000 13493.0000 1.0000
52.9200 13426.0000 1.0000
52.9400 13478.0000 1.0000
52.9600 13363.0000 1.0000
52.9800 13415.0000 1.0000
53.0000 13641.0000 1.0000
53.0200 13383.0000 1.0000
53.0400 13421.0000 1.0000
53.0600 13483.0000 1.0000
53.0800 13469.0000 1.0000
53.1000 13531.0000 1.0000
53.1200 13659.0000 1.0000
53.1400 13417.0000 1.0000
53.1600 13188.0000 1.0000
53.1800 13477.0000 1.0000
53.2000 13421.0000 1.0000
53.2200 13433.0000 1.0000
53.2400 13588.0000 1.0000
53.2600 13403.0000 1.0000
53.2800 13560.0000 1.0000
53.3000 13689.0000 1.0000
53.3200 13503.0000 1.0000
53.3400 13825.0000 1.0000
53.3600 13523.0000 1.0000
53.3800 13621.0000 1.0000
53.4000 13720.0000 1.0000
53.4200 13929.0000 1.0000
53.4400 14326.0000 1.0000
53.4600 14116.0000 1.0000
53.4800 14379.0000 1.0000
53.5000 14516.0000 1.0000
53.5200 14586.0000 1.0000
53.5400 14292.0000 1.0000
53.5600 14317.0000 1.0000
53.5800 14109.0000 1.0000
53.6000 14346.0000 1.0000
53.6200 14312.0000 1.0000
53.6400 14071.0000 1.0000
53.6600 14292.0000 1.0000
53.6800 14183.0000 1.0000
53.7000 13912.0000 1.0000
53.7200 14010.0000 1.0000
53.7400 14014.0000 1.0000
53.7600 13953.0000 1.0000
53.7800 13801.0000 1.0000
53.8000 13712.0000 1.0000
53.8200 14066.0000 1.0000
53.8400 13966.0000 1.0000
53.8600 13818.0000 1.0000
53.8800 14015.0000 1.0000
53.9000 14138.0000 1.0000
53.9200 14219.0000 1.0000
53.9400 14231.0000 1.0000
53.9600 14449.0000 1.0000
53.9800 14794.0000 1.0000
54.0000 15105.0000 1.0000
54.0200 15962.0000 1.0000
54.0400 16884.0000 1.0000
54.0600 17085.0000 1.0000
54.0800 17104.0000 1.0000
54.1000 16749.0000 1.0000
54.1200 16413.0000 1.0000
54.1400 15864.0000 1.0000
54.1600 15786.0000 1.0000
54.1800 15685.0000 1.0000
54.2000 15692.0000 1.0000
54.2200 15642.0000 1.0000
54.2400 15447.0000 1.0000
54.2600 15201.0000 1.0000
54.2800 14514.0000 1.0000
54.3000 14462.0000 1.0000
54.3200 13872.0000 1.0000
54.3400 13705.0000 1.0000
54.3600 13579.0000 1.0000
54.3800 13774.0000 1.0000
54.4000 13870.0000 1.0000
54.4200 13488.0000 1.0000
54.4400 13804.0000 1.0000
54.4600 13474.0000 1.0000
54.4800 13427.0000 1.0000
54.5000 13493.0000 1.0000
54.5200 13545.0000 1.0000
54.5400 13598.0000 1.0000
54.5600 13592.0000 1.0000
54.5800 13597.0000 1.0000
54.6000 13658.0000 1.0000
54.6200 13569.0000 1.0000
54.6400 13576.0000 1.0000
54.6600 13534.0000 1.0000
54.6800 13562.0000 1.0000
54.7000 13572.0000 1.0000
54.7200 13509.0000 1.0000
54.7400 13555.0000 1.0000
54.7600 13621.0000 1.0000
54.7800 13291.0000 1.0000
54.8000 13546.0000 1.0000
54.8200 13690.0000 1.0000
54.8400 13491.0000 1.0000
54.8600 13681.0000 1.0000
54.8800 13736.0000 1.0000
54.9000 13650.0000 1.0000
54.9200 13499.0000 1.0000
54.9400 13636.0000 1.0000
54.9600 13546.0000 1.0000
54.9800 13419.0000 1.0000
55.0000 13590.0000 1.0000
55.0200 13699.0000 1.0000
55.0400 13567.0000 1.0000
55.0600 13601.0000 1.0000
55.0800 13267.0000 1.0000
55.1000 13397.0000 1.0000
55.1200 13296.0000 1.0000
55.1400 13432.0000 1.0000
55.1600 13520.0000 1.0000
55.1800 13590.0000 1.0000
55.2000 13540.0000 1.0000
55.2200 13577.0000 1.0000
55.2400 13416.0000 1.0000
55.2600 13504.0000 1.0000
55.2800 13537.0000 1.0000
55.3000 13605.0000 1.0000
55.3200 13643.0000 1.0000
55.3400 13451.0000 1.0000
55.3600 13550.0000 1.0000
55.3800 13566.0000 1.0000
55.4000 13407.0000 1.0000
55.4200 13533.0000 1.0000
55.4400 13551.0000 1.0000
55.4600 13327.0000 1.0000
55.4800 13621.0000 1.0000
55.5000 13380.0000 1.0000
55.5200 13279.0000 1.0000
55.5400 13507.0000 1.0000
55.5600 13503.0000 1.0000
55.5800 13523.0000 1.0000
55.6000 13514.0000 1.0000
55.6200 13240.0000 1.0000
55.6400 13440.0000 1.0000
55.6600 13422.0000 1.0000
55.6800 13425.0000 1.0000
55.7000 13628.0000 1.0000
55.7200 13634.0000 1.0000
55.7400 13422.0000 1.0000
55.7600 13520.0000 1.0000
55.7800 13540.0000 1.0000
55.8000 13567.0000 1.0000
55.8200 13316.0000 1.0000
55.8400 13462.0000 1.0000
55.8600 13507.0000 1.0000
55.8800 13360.0000 1.0000
55.9000 13383.0000 1.0000
55.9200 13285.0000 1.0000
55.9400 13523.0000 1.0000
55.9600 13586.0000 1.0000
55.9800 13477.0000 1.0000
56.0000 13521.0000 1.0000
56.0200 13692.0000 1.0000
56.0400 13490.0000 1.0000
56.0600 13567.0000 1.0000
56.0800 13381.0000 1.0000
56.1000 13592.0000 1.0000
56.1200 13693.0000 1.0000
56.1400 13310.0000 1.0000
56.1600 13559.0000 1.0000
56.1800 13367.0000 1.0000
56.2000 13572.0000 1.0000
56.2200 13367.0000 1.0000
56.2400 13280.0000 1.0000
56.2600 13616.0000 1.0000
56.2800 13415.0000 1.0000
56.3000 13585.0000 1.0000
56.3200 13623.0000 1.0000
56.3400 13330.0000 1.0000
56.3600 13454.0000 1.0000
56.3800 13666.0000 1.0000
56.4000 13535.0000 1.0000
56.4200 13494.0000 1.0000
56.4400 13535.0000 1.0000
56.4600 13398.0000 1.0000
56.4800 13582.0000 1.0000
56.5000 13592.0000 1.0000
56.5200 13516.0000 1.0000
56.5400 13383.0000 1.0000
56.5600 13454.0000 1.0000
56.5800 13572.0000 1.0000
56.6000 13612.0000 1.0000
56.6200 13514.0000 1.0000
56.6400 13460.0000 1.0000
56.6600 13683.0000 1.0000
56.6800 13502.0000 1.0000
56.7000 13657.0000 1.0000
56.7200 13635.0000 1.0000
56.7400 13516.0000 1.0000
56.7600 13631.0000 1.0000
56.7800 13772.0000 1.0000
56.8000 13708.0000 1.0000
56.8200 13956.0000 1.0000
56.8400 13882.0000 1.0000
56.8600 14083.0000 1.0000
56.8800 14179.0000 1.0000
56.9000 14311.0000 1.0000
56.9200 14567.0000 1.0000
56.9400 14944.0000 1.0000
56.9600 15234.0000 1.0000
56.9800 15862.0000 1.0000
57.0000 16423.0000 1.0000
57.0200 16566.0000 1.0000
57.0400 16639.0000 1.0000
57.0600 16545.0000 1.0000
57.0800 16025.0000 1.0000
57.1000 16050.0000 1.0000
57.1200 16162.0000 1.0000
57.1400 16115.0000 1.0000
57.1600 16114.0000 1.0000
57.1800 16002.0000 1.0000
57.2000 15754.0000 1.0000
57.2200 15569.0000 1.0000
57.2400 15328.0000 1.0000
57.2600 15309.0000 1.0000
57.2800 15007.0000 1.0000
57.3000 14601.0000 1.0000
57.3200 14629.0000 1.0000
57.3400 14449.0000 1.0000
57.3600 14528.0000 1.0000
57.3800 14555.0000 1.0000
57.4000 14506.0000 1.0000
57.4200 14713.0000 1.0000
57.4400 14476.0000 1.0000
57.4600 14751.0000 1.0000
57.4800 15082.0000 1.0000
57.5000 15038.0000 1.0000
57.5200 14983.0000 1.0000
57.5400 14828.0000 1.0000
57.5600 15010.0000 1.0000
57.5800 15033.0000 1.0000
57.6000 15038.0000 1.0000
57.6200 15072.0000 1.0000
57.6400 14916.0000 1.0000
57.6600 14922.0000 1.0000
57.6800 14707.0000 1.0000
57.7000 14304.0000 1.0000
57.7200 14217.0000 1.0000
57.7400 14025.0000 1.0000
57.7600 14011.0000 1.0000
57.7800 13795.0000 1.0000
57.8000 13905.0000 1.0000
57.8200 13945.0000 1.0000
57.8400 13668.0000 1.0000
57.8600 13448.0000 1.0000
57.8800 13651.0000 1.0000
57.9000 13558.0000 1.0000
57.9200 13703.0000 1.0000
57.9400 13529.0000 1.0000
57.9600 13324.0000 1.0000
57.9800 13363.0000 1.0000
58.0000 13496.0000 1.0000
58.0200 13479.0000 1.0000
58.0400 13405.0000 1.0000
58.0600 13433.0000 1.0000
58.0800 13554.0000 1.0000
58.1000 13355.0000 1.0000
58.1200 13526.0000 1.0000
58.1400 13378.0000 1.0000
58.1600 13541.0000 1.0000
58.1800 13524.0000 1.0000
58.2000 13505.0000 1.0000
58.2200 13392.0000 1.0000
58.2400 13519.0000 1.0000
58.2600 13521.0000 1.0000
58.2800 13346.0000 1.0000
58.3000 13310.0000 1.0000
58.3200 13434.0000 1.0000
58.3400 13437.0000 1.0000
58.3600 13484.0000 1.0000
58.3800 13478.0000 1.0000
58.4000 13577.0000 1.0000
58.4200 13458.0000 1.0000
58.4400 13234.0000 1.0000
58.4600 13489.0000 1.0000
58.4800 13610.0000 1.0000
58.5000 13324.0000 1.0000
58.5200 13192.0000 1.0000
58.5400 13452.0000 1.0000
58.5600 13425.0000 1.0000
58.5800 13366.0000 1.0000
58.6000 13628.0000 1.0000
58.6200 13590.0000 1.0000
58.6400 13494.0000 1.0000
58.6600 13215.0000 1.0000
58.6800 13326.0000 1.0000
58.7000 13362.0000 1.0000
58.7200 13396.0000 1.0000
58.7400 13395.0000 1.0000
58.7600 13436.0000 1.0000
58.7800 13288.0000 1.0000
58.8000 13516.0000 1.0000
58.8200 13436.0000 1.0000
58.8400 13351.0000 1.0000
58.8600 13342.0000 1.0000
58.8800 13680.0000 1.0000
58.9000 13460.0000 1.0000
58.9200 13442.0000 1.0000
58.9400 13363.0000 1.0000
58.9600 13303.0000 1.0000
58.9800 13361.0000 1.0000
59.0000 13499.0000 1.0000
59.0200 13389.0000 1.0000
59.0400 13276.0000 1.0000
59.0600 13359.0000 1.0000
59.0800 13235.0000 1.0000
59.1000 13345.0000 1.0000
59.1200 13599.0000 1.0000
59.1400 13332.0000 1.0000
59.1600 13248.0000 1.0000
59.1800 13448.0000 1.0000
59.2000 13460.0000 1.0000
59.2200 13382.0000 1.0000
59.2400 13395.0000 1.0000
59.2600 13463.0000 1.0000
59.2800 13288.0000 1.0000
59.3000 13472.0000 1.0000
59.3200 13511.0000 1.0000
59.3400 13496.0000 1.0000
59.3600 13386.0000 1.0000
59.3800 13523.0000 1.0000
59.4000 13545.0000 1.0000
59.4200 13378.0000 1.0000
59.4400 13384.0000 1.0000
59.4600 13391.0000 1.0000
59.4800 13338.0000 1.0000
59.5000 13586.0000 1.0000
59.5200 13424.0000 1.0000
59.5400 13285.0000 1.0000
59.5600 13460.0000 1.0000
59.5800 13485.0000 1.0000
59.6000 13392.0000 1.0000
59.6200 13518.0000 1.0000
59.6400 13219.0000 1.0000
59.6600 13424.0000 1.0000
59.6800 13465.0000 1.0000
59.7000 13496.0000 1.0000
59.7200 13382.0000 1.0000
59.7400 13310.0000 1.0000
59.7600 13179.0000 1.0000
59.7800 13024.0000 1.0000
59.8000 13519.0000 1.0000
59.8200 13264.0000 1.0000
59.8400 13432.0000 1.0000
59.8600 13372.0000 1.0000
59.8800 13380.0000 1.0000
59.9000 13528.0000 1.0000
59.9200 13663.0000 1.0000
59.9400 13788.0000 1.0000
59.9600 13883.0000 1.0000
59.9800 13845.0000 1.0000
60.0000 13685.0000 1.0000
60.0200 13508.0000 1.0000
60.0400 13609.0000 1.0000
60.0600 13664.0000 1.0000
60.0800 13503.0000 1.0000
60.1000 13526.0000 1.0000
60.1200 13773.0000 1.0000
60.1400 13552.0000 1.0000
60.1600 13434.0000 1.0000
60.1800 13532.0000 1.0000
60.2000 13410.0000 1.0000
60.2200 13405.0000 1.0000
60.2400 13266.0000 1.0000
60.2600 13346.0000 1.0000
60.2800 13475.0000 1.0000
60.3000 13386.0000 1.0000
60.3200 13566.0000 1.0000
60.3400 13323.0000 1.0000
60.3600 13284.0000 1.0000
60.3800 13248.0000 1.0000
60.4000 13429.0000 1.0000
60.4200 13440.0000 1.0000
60.4400 13387.0000 1.0000
60.4600 13411.0000 1.0000
60.4800 13263.0000 1.0000
60.5000 13663.0000 1.0000
60.5200 13429.0000 1.0000
60.5400 13469.0000 1.0000
60.5600 13376.0000 1.0000
60.5800 13139.0000 1.0000
60.6000 13477.0000 1.0000
60.6200 13484.0000 1.0000
60.6400 13500.0000 1.0000
60.6600 13299.0000 1.0000
60.6800 13405.0000 1.0000
60.7000 13297.0000 1.0000
60.7200 13520.0000 1.0000
60.7400 13395.0000 1.0000
60.7600 13287.0000 1.0000
60.7800 13415.0000 1.0000
60.8000 13553.0000 1.0000
60.8200 13328.0000 1.0000
60.8400 13550.0000 1.0000
60.8600 13299.0000 1.0000
60.8800 13437.0000 1.0000
60.9000 13411.0000 1.0000
60.9200 13409.0000 1.0000
60.9400 13368.0000 1.0000
60.9600 13330.0000 1.0000
60.9800 13531.0000 1.0000
61.0000 13282.0000 1.0000
61.0200 13268.0000 1.0000
61.0400 13510.0000 1.0000
61.0600 13486.0000 1.0000
61.0800 13315.0000 1.0000
61.1000 13379.0000 1.0000
61.1200 13421.0000 1.0000
61.1400 13529.0000 1.0000
61.1600 13175.0000 1.0000
61.1800 13422.0000 1.0000
61.2000 13315.0000 1.0000
61.2200 13347.0000 1.0000
61.2400 13547.0000 1.0000
61.2600 13525.0000 1.0000
61.2800 13486.0000 1.0000
61.3000 13400.0000 1.0000
61.3200 13534.0000 1.0000
61.3400 13457.0000 1.0000
61.3600 13489.0000 1.0000
61.3800 13500.0000 1.0000
61.4000 13294.0000 1.0000
61.4200 13486.0000 1.0000
61.4400 13540.0000 1.0000
61.4600 13607.0000 1.0000
61.4800 13516.0000 1.0000
61.5000 13574.0000 1.0000
61.5200 13476.0000 1.0000
61.5400 13547.0000 1.0000
61.5600 13550.0000 1.0000
61.5800 13571.0000 1.0000
61.6000 13279.0000 1.0000
61.6200 13454.0000 1.0000
61.6400 13236.0000 1.0000
61.6600 13561.0000 1.0000
61.6800 13419.0000 1.0000
61.7000 13568.0000 1.0000
61.7200 13211.0000 1.0000
61.7400 13359.0000 1.0000
61.7600 13192.0000 1.0000
61.7800 13438.0000 1.0000
61.8000 13466.0000 1.0000
61.8200 13561.0000 1.0000
61.8400 13298.0000 1.0000
61.8600 13402.0000 1.0000
61.8800 13554.0000 1.0000
61.9000 13112.0000 1.0000
61.9200 13568.0000 1.0000
61.9400 13557.0000 1.0000
61.9600 13453.0000 1.0000
61.9800 13438.0000 1.0000
62.0000 13536.0000 1.0000
62.0200 13432.0000 1.0000
62.0400 13404.0000 1.0000
62.0600 13530.0000 1.0000
62.0800 13481.0000 1.0000
62.1000 13488.0000 1.0000
62.1200 13525.0000 1.0000
62.1400 13627.0000 1.0000
62.1600 13420.0000 1.0000
62.1800 13693.0000 1.0000
62.2000 13568.0000 1.0000
62.2200 13462.0000 1.0000
62.2400 13776.0000 1.0000
62.2600 13996.0000 1.0000
62.2800 13780.0000 1.0000
62.3000 14080.0000 1.0000
62.3200 14480.0000 1.0000
62.3400 14435.0000 1.0000
62.3600 14915.0000 1.0000
62.3800 15257.0000 1.0000
62.4000 15847.0000 1.0000
62.4200 16210.0000 1.0000
62.4400 16500.0000 1.0000
62.4600 16379.0000 1.0000
62.4800 16190.0000 1.0000
62.5000 15961.0000 1.0000
62.5200 16188.0000 1.0000
62.5400 16421.0000 1.0000
62.5600 17177.0000 1.0000
62.5800 18005.0000 1.0000
62.6000 18848.0000 1.0000
62.6200 19368.0000 1.0000
62.6400 19075.0000 1.0000
62.6600 18587.0000 1.0000
62.6800 17733.0000 1.0000
62.7000 17148.0000 1.0000
62.7200 16867.0000 1.0000
62.7400 16885.0000 1.0000
62.7600 16939.0000 1.0000
62.7800 16874.0000 1.0000
62.8000 16772.0000 1.0000
62.8200 16359.0000 1.0000
62.8400 16027.0000 1.0000
62.8600 15730.0000 1.0000
62.8800 15344.0000 1.0000
62.9000 14879.0000 1.0000
62.9200 14658.0000 1.0000
62.9400 14351.0000 1.0000
62.9600 14239.0000 1.0000
62.9800 14581.0000 1.0000
63.0000 14158.0000 1.0000
63.0200 14059.0000 1.0000
63.0400 13810.0000 1.0000
63.0600 13906.0000 1.0000
63.0800 13808.0000 1.0000
63.1000 13726.0000 1.0000
63.1200 13674.0000 1.0000
63.1400 13729.0000 1.0000
63.1600 13509.0000 1.0000
63.1800 13614.0000 1.0000
63.2000 13670.0000 1.0000
63.2200 13669.0000 1.0000
63.2400 13576.0000 1.0000
63.2600 13297.0000 1.0000
63.2800 13563.0000 1.0000
63.3000 13488.0000 1.0000
63.3200 13275.0000 1.0000
63.3400 13403.0000 1.0000
63.3600 13273.0000 1.0000
63.3800 13469.0000 1.0000
63.4000 13442.0000 1.0000
63.4200 13336.0000 1.0000
63.4400 13590.0000 1.0000
63.4600 13471.0000 1.0000
63.4800 13638.0000 1.0000
63.5000 13342.0000 1.0000
63.5200 13585.0000 1.0000
63.5400 13354.0000 1.0000
63.5600 13518.0000 1.0000
63.5800 13710.0000 1.0000
63.6000 13437.0000 1.0000
63.6200 13406.0000 1.0000
63.6400 13702.0000 1.0000
63.6600 13435.0000 1.0000
63.6800 13654.0000 1.0000
63.7000 13520.0000 1.0000
63.7200 13503.0000 1.0000
63.7400 13619.0000 1.0000
63.7600 13432.0000 1.0000
63.7800 13630.0000 1.0000
63.8000 13555.0000 1.0000
63.8200 13928.0000 1.0000
63.8400 13740.0000 1.0000
63.8600 13738.0000 1.0000
63.8800 13963.0000 1.0000
63.9000 14094.0000 1.0000
63.9200 14444.0000 1.0000
63.9400 14836.0000 1.0000
63.9600 15153.0000 1.0000
63.9800 15624.0000 1.0000
64.0000 15856.0000 1.0000
64.0200 15880.0000 1.0000
64.0400 15471.0000 1.0000
64.0600 14890.0000 1.0000
64.0800 14791.0000 1.0000
64.1000 14499.0000 1.0000
64.1200 14659.0000 1.0000
64.1400 14815.0000 1.0000
64.1600 14776.0000 1.0000
64.1800 14790.0000 1.0000
64.2000 14659.0000 1.0000
64.2200 14277.0000 1.0000
64.2400 14217.0000 1.0000
64.2600 13967.0000 1.0000
64.2800 13533.0000 1.0000
64.3000 13557.0000 1.0000
64.3200 13676.0000 1.0000
64.3400 13494.0000 1.0000
64.3600 13702.0000 1.0000
64.3800 13556.0000 1.0000
64.4000 13581.0000 1.0000
64.4200 13554.0000 1.0000
64.4400 13350.0000 1.0000
64.4600 13547.0000 1.0000
64.4800 13395.0000 1.0000
64.5000 13540.0000 1.0000
64.5200 13496.0000 1.0000
64.5400 13556.0000 1.0000
64.5600 13228.0000 1.0000
64.5800 13467.0000 1.0000
64.6000 13505.0000 1.0000
64.6200 13425.0000 1.0000
64.6400 13496.0000 1.0000
64.6600 13478.0000 1.0000
64.6800 13453.0000 1.0000
64.7000 13272.0000 1.0000
64.7200 13347.0000 1.0000
64.7400 13339.0000 1.0000
64.7600 13261.0000 1.0000
64.7800 13249.0000 1.0000
64.8000 13508.0000 1.0000
64.8200 13388.0000 1.0000
64.8400 13424.0000 1.0000
64.8600 13533.0000 1.0000
64.8800 13373.0000 1.0000
64.9000 13378.0000 1.0000
64.9200 13529.0000 1.0000
64.9400 13317.0000 1.0000
64.9600 13447.0000 1.0000
64.9800 13231.0000 1.0000
65.0000 13549.0000 1.0000
65.0200 13400.0000 1.0000
65.0400 13328.0000 1.0000
65.0600 13346.0000 1.0000
65.0800 13319.0000 1.0000
65.1000 13449.0000 1.0000
65.1200 13476.0000 1.0000
65.1400 13229.0000 1.0000
65.1600 13363.0000 1.0000
65.1800 13553.0000 1.0000
65.2000 13446.0000 1.0000
65.2200 13365.0000 1.0000
65.2400 13357.0000 1.0000
65.2600 13430.0000 1.0000
65.2800 13516.0000 1.0000
65.3000 13443.0000 1.0000
65.3200 13380.0000 1.0000
65.3400 13440.0000 1.0000
65.3600 13571.0000 1.0000
65.3800 13398.0000 1.0000
65.4000 13577.0000 1.0000
65.4200 13400.0000 1.0000
65.4400 13315.0000 1.0000
65.4600 13645.0000 1.0000
65.4800 13371.0000 1.0000
65.5000 13376.0000 1.0000
65.5200 13586.0000 1.0000
65.5400 13656.0000 1.0000
65.5600 13418.0000 1.0000
65.5800 13194.0000 1.0000
65.6000 13293.0000 1.0000
65.6200 13366.0000 1.0000
65.6400 13591.0000 1.0000
65.6600 13604.0000 1.0000
65.6800 13302.0000 1.0000
65.7000 13646.0000 1.0000
65.7200 13565.0000 1.0000
65.7400 13433.0000 1.0000
65.7600 13411.0000 1.0000
65.7800 13356.0000 1.0000
65.8000 13758.0000 1.0000
65.8200 13792.0000 1.0000
65.8400 13410.0000 1.0000
65.8600 13462.0000 1.0000
65.8800 13351.0000 1.0000
65.9000 13434.0000 1.0000
65.9200 13421.0000 1.0000
65.9400 13560.0000 1.0000
65.9600 13470.0000 1.0000
65.9800 13486.0000 1.0000
66.0000 13426.0000 1.0000
66.0200 13473.0000 1.0000
66.0400 13608.0000 1.0000
66.0600 13574.0000 1.0000
66.0800 13448.0000 1.0000
66.1000 13299.0000 1.0000
66.1200 13557.0000 1.0000
66.1400 13452.0000 1.0000
66.1600 13572.0000 1.0000
66.1800 13445.0000 1.0000
66.2000 13709.0000 1.0000
66.2200 13633.0000 1.0000
66.2400 13385.0000 1.0000
66.2600 13417.0000 1.0000
66.2800 13411.0000 1.0000
66.3000 13466.0000 1.0000
66.3200 13445.0000 1.0000
66.3400 13577.0000 1.0000
66.3600 13435.0000 1.0000
66.3800 13564.0000 1.0000
66.4000 13333.0000 1.0000
66.4200 13634.0000 1.0000
66.4400 13506.0000 1.0000
66.4600 13692.0000 1.0000
66.4800 13541.0000 1.0000
66.5000 13730.0000 1.0000
66.5200 13754.0000 1.0000
66.5400 13755.0000 1.0000
66.5600 13648.0000 1.0000
66.5800 13721.0000 1.0000
66.6000 13672.0000 1.0000
66.6200 13484.0000 1.0000
66.6400 13706.0000 1.0000
66.6600 13801.0000 1.0000
66.6800 13660.0000 1.0000
66.7000 13559.0000 1.0000
66.7200 13613.0000 1.0000
66.7400 13501.0000 1.0000
66.7600 13404.0000 1.0000
66.7800 13506.0000 1.0000
66.8000 13488.0000 1.0000
66.8200 13450.0000 1.0000
66.8400 13398.0000 1.0000
66.8600 13490.0000 1.0000
66.8800 13389.0000 1.0000
66.9000 13316.0000 1.0000
66.9200 13438.0000 1.0000
66.9400 13378.0000 1.0000
66.9600 13537.0000 1.0000
66.9800 13524.0000 1.0000
67.0000 13401.0000 1.0000
67.0200 13383.0000 1.0000
67.0400 13332.0000 1.0000
67.0600 13264.0000 1.0000
67.0800 13417.0000 1.0000
67.1000 13305.0000 1.0000
67.1200 13294.0000 1.0000
67.1400 13423.0000 1.0000
67.1600 13484.0000 1.0000
67.1800 13420.0000 1.0000
67.2000 13331.0000 1.0000
67.2200 13354.0000 1.0000
67.2400 13595.0000 1.0000
67.2600 13500.0000 1.0000
67.2800 13422.0000 1.0000
67.3000 13449.0000 1.0000
67.3200 13418.0000 1.0000
67.3400 13396.0000 1.0000
67.3600 13367.0000 1.0000
67.3800 13343.0000 1.0000
67.4000 13515.0000 1.0000
67.4200 13298.0000 1.0000
67.4400 13618.0000 1.0000
67.4600 13613.0000 1.0000
67.4800 13422.0000 1.0000
67.5000 13339.0000 1.0000
67.5200 13496.0000 1.0000
67.5400 13471.0000 1.0000
67.5600 13593.0000 1.0000
67.5800 13586.0000 1.0000
67.6000 13380.0000 1.0000
67.6200 13348.0000 1.0000
67.6400 13273.0000 1.0000
67.6600 13466.0000 1.0000
67.6800 13613.0000 1.0000
67.7000 13468.0000 1.0000
67.7200 13748.0000 1.0000
67.7400 13669.0000 1.0000
67.7600 13573.0000 1.0000
67.7800 13605.0000 1.0000
67.8000 13321.0000 1.0000
67.8200 13616.0000 1.0000
67.8400 13619.0000 1.0000
67.8600 13322.0000 1.0000
67.8800 13508.0000 1.0000
67.9000 13484.0000 1.0000
67.9200 13646.0000 1.0000
67.9400 13781.0000 1.0000
67.9600 13669.0000 1.0000
67.9800 13700.0000 1.0000
68.0000 13681.0000 1.0000
68.0200 13442.0000 1.0000
68.0400 13723.0000 1.0000
68.0600 13581.0000 1.0000
68.0800 13894.0000 1.0000
68.1000 13992.0000 1.0000
68.1200 13858.0000 1.0000
68.1400 14185.0000 1.0000
68.1600 14065.0000 1.0000
68.1800 14501.0000 1.0000
68.2000 14264.0000 1.0000
68.2200 14115.0000 1.0000
68.2400 13913.0000 1.0000
68.2600 13958.0000 1.0000
68.2800 13938.0000 1.0000
68.3000 13921.0000 1.0000
68.3200 13869.0000 1.0000
68.3400 14095.0000 1.0000
68.3600 13875.0000 1.0000
68.3800 13855.0000 1.0000
68.4000 13801.0000 1.0000
68.4200 13836.0000 1.0000
68.4400 13564.0000 1.0000
68.4600 13681.0000 1.0000
68.4800 13640.0000 1.0000
68.5000 13682.0000 1.0000
68.5200 13587.0000 1.0000
68.5400 13664.0000 1.0000
68.5600 13397.0000 1.0000
68.5800 13443.0000 1.0000
68.6000 13428.0000 1.0000
68.6200 13559.0000 1.0000
68.6400 13439.0000 1.0000
68.6600 13233.0000 1.0000
68.6800 13472.0000 1.0000
68.7000 13423.0000 1.0000
68.7200 13328.0000 1.0000
68.7400 13499.0000 1.0000
68.7600 13335.0000 1.0000
68.7800 13461.0000 1.0000
68.8000 13342.0000 1.0000
68.8200 13301.0000 1.0000
68.8400 13391.0000 1.0000
68.8600 13544.0000 1.0000
68.8800 13322.0000 1.0000
68.9000 13477.0000 1.0000
68.9200 13280.0000 1.0000
68.9400 13501.0000 1.0000
68.9600 13504.0000 1.0000
68.9800 13427.0000 1.0000
69.0000 13554.0000 1.0000
69.0200 13568.0000 1.0000
69.0400 13254.0000 1.0000
69.0600 13276.0000 1.0000
69.0800 13444.0000 1.0000
69.1000 13483.0000 1.0000
69.1200 13331.0000 1.0000
69.1400 13339.0000 1.0000
69.1600 13443.0000 1.0000
69.1800 13333.0000 1.0000
69.2000 13501.0000 1.0000
69.2200 13477.0000 1.0000
69.2400 13436.0000 1.0000
69.2600 13343.0000 1.0000
69.2800 13479.0000 1.0000
69.3000 13317.0000 1.0000
69.3200 13421.0000 1.0000
69.3400 13375.0000 1.0000
69.3600 13312.0000 1.0000
69.3800 13315.0000 1.0000
69.4000 13255.0000 1.0000
69.4200 13176.0000 1.0000
69.4400 13292.0000 1.0000
69.4600 13368.0000 1.0000
69.4800 13378.0000 1.0000
69.5000 13557.0000 1.0000
69.5200 13404.0000 1.0000
69.5400 13352.0000 1.0000
69.5600 13493.0000 1.0000
69.5800 13717.0000 1.0000
69.6000 13723.0000 1.0000
69.6200 13618.0000 1.0000
69.6400 13356.0000 1.0000
69.6600 13332.0000 1.0000
69.6800 13513.0000 1.0000
69.7000 13537.0000 1.0000
69.7200 13414.0000 1.0000
69.7400 13537.0000 1.0000
69.7600 13654.0000 1.0000
69.7800 13559.0000 1.0000
69.8000 13589.0000 1.0000
69.8200 13436.0000 1.0000
69.8400 13282.0000 1.0000
69.8600 13530.0000 1.0000
69.8800 13325.0000 1.0000
69.9000 13382.0000 1.0000
69.9200 13452.0000 1.0000
69.9400 13461.0000 1.0000
69.9600 13392.0000 1.0000
69.9800 13349.0000 1.0000
70.0000 13408.0000 1.0000
70.0200 13308.0000 1.0000
70.0400 13265.0000 1.0000
70.0600 13438.0000 1.0000
70.0800 13404.0000 1.0000
70.1000 13398.0000 1.0000
70.1200 13390.0000 1.0000
70.1400 13406.0000 1.0000
70.1600 13364.0000 1.0000
70.1800 13321.0000 1.0000
70.2000 13423.0000 1.0000
70.2200 13073.0000 1.0000
70.2400 13340.0000 1.0000
70.2600 13438.0000 1.0000
70.2800 13494.0000 1.0000
70.3000 13504.0000 1.0000
70.3200 13526.0000 1.0000
70.3400 13375.0000 1.0000
70.3600 13210.0000 1.0000
70.3800 13543.0000 1.0000
70.4000 13643.0000 1.0000
70.4200 13419.0000 1.0000
70.4400 13394.0000 1.0000
70.4600 13306.0000 1.0000
70.4800 13453.0000 1.0000
70.5000 13407.0000 1.0000
70.5200 13516.0000 1.0000
70.5400 13383.0000 1.0000
70.5600 13435.0000 1.0000
70.5800 13427.0000 1.0000
70.6000 13153.0000 1.0000
70.6200 13355.0000 1.0000
70.6400 13560.0000 1.0000
70.6600 13365.0000 1.0000
70.6800 13408.0000 1.0000
70.7000 13353.0000 1.0000
70.7200 13518.0000 1.0000
70.7400 13598.0000 1.0000
70.7600 13467.0000 1.0000
70.7800 13304.0000 1.0000
70.8000 13469.0000 1.0000
70.8200 13256.0000 1.0000
70.8400 13410.0000 1.0000
70.8600 13493.0000 1.0000
70.8800 13434.0000 1.0000
70.9000 13419.0000 1.0000
70.9200 13545.0000 1.0000
70.9400 13461.0000 1.0000
70.9600 13431.0000 1.0000
70.9800 13472.0000 1.0000
71.0000 13574.0000 1.0000
71.0200 13727.0000 1.0000
71.0400 13679.0000 1.0000
71.0600 13749.0000 1.0000
71.0800 13610.0000 1.0000
71.1000 13798.0000 1.0000
71.1200 13727.0000 1.0000
71.1400 13752.0000 1.0000
71.1600 13673.0000 1.0000
71.1800 13573.0000 1.0000
71.2000 13918.0000 1.0000
71.2200 13730.0000 1.0000
71.2400 13649.0000 1.0000
71.2600 13650.0000 1.0000
71.2800 13612.0000 1.0000
71.3000 13627.0000 1.0000
71.3200 13534.0000 1.0000
71.3400 13505.0000 1.0000
71.3600 13519.0000 1.0000
71.3800 13356.0000 1.0000
71.4000 13472.0000 1.0000
71.4200 13495.0000 1.0000
71.4400 13568.0000 1.0000
71.4600 13428.0000 1.0000
71.4800 13430.0000 1.0000
71.5000 13425.0000 1.0000
71.5200 13201.0000 1.0000
71.5400 13292.0000 1.0000
71.5600 13569.0000 1.0000
71.5800 13313.0000 1.0000
71.6000 13342.0000 1.0000
71.6200 13244.0000 1.0000
71.6400 13356.0000 1.0000
71.6600 13310.0000 1.0000
71.6800 13631.0000 1.0000
71.7000 13387.0000 1.0000
71.7200 13490.0000 1.0000
71.7400 13539.0000 1.0000
71.7600 13525.0000 1.0000
71.7800 13468.0000 1.0000
71.8000 13599.0000 1.0000
71.8200 13531.0000 1.0000
71.8400 13502.0000 1.0000
71.8600 13647.0000 1.0000
71.8800 14115.0000 1.0000
71.9000 13852.0000 1.0000
71.9200 13973.0000 1.0000
71.9400 14398.0000 1.0000
71.9600 14148.0000 1.0000
71.9800 14202.0000 1.0000
72.0000 13824.0000 1.0000
72.0200 13890.0000 1.0000
72.0400 13912.0000 1.0000
72.0600 13729.0000 1.0000
72.0800 13722.0000 1.0000
72.1000 13776.0000 1.0000
72.1200 13635.0000 1.0000
72.1400 13876.0000 1.0000
72.1600 13716.0000 1.0000
72.1800 13901.0000 1.0000
72.2000 13821.0000 1.0000
72.2200 13781.0000 1.0000
72.2400 13475.0000 1.0000
72.2600 13370.0000 1.0000
72.2800 13568.0000 1.0000
72.3000 13661.0000 1.0000
72.3200 13447.0000 1.0000
72.3400 13503.0000 1.0000
72.3600 13513.0000 1.0000
72.3800 13375.0000 1.0000
72.4000 13644.0000 1.0000
72.4200 13686.0000 1.0000
72.4400 13098.0000 1.0000
72.4600 13292.0000 1.0000
72.4800 13425.0000 1.0000
72.5000 13272.0000 1.0000
72.5200 13632.0000 1.0000
72.5400 13339.0000 1.0000
72.5600 13357.0000 1.0000
72.5800 13405.0000 1.0000
72.6000 13574.0000 1.0000
72.6200 13391.0000 1.0000
72.6400 13407.0000 1.0000
72.6600 13442.0000 1.0000
72.6800 13462.0000 1.0000
72.7000 13384.0000 1.0000
72.7200 13454.0000 1.0000
72.7400 13463.0000 1.0000
72.7600 13305.0000 1.0000
72.7800 13317.0000 1.0000
72.8000 13508.0000 1.0000
72.8200 13491.0000 1.0000
72.8400 13402.0000 1.0000
72.8600 13354.0000 1.0000
72.8800 13540.0000 1.0000
72.9000 13444.0000 1.0000
72.9200 13352.0000 1.0000
72.9400 13295.0000 1.0000
72.9600 13404.0000 1.0000
72.9800 13409.0000 1.0000
73.0000 13441.0000 1.0000
73.0200 13365.0000 1.0000
73.0400 13463.0000 1.0000
73.0600 13313.0000 1.0000
73.0800 13472.0000 1.0000
73.1000 13295.0000 1.0000
73.1200 13362.0000 1.0000
73.1400 13418.0000 1.0000
73.1600 13265.0000 1.0000
73.1800 13282.0000 1.0000
73.2000 13574.0000 1.0000
73.2200 13340.0000 1.0000
73.2400 13195.0000 1.0000
73.2600 13333.0000 1.0000
73.2800 13237.0000 1.0000
73.3000 13402.0000 1.0000
73.3200 13314.0000 1.0000
73.3400 13355.0000 1.0000
73.3600 13512.0000 1.0000
73.3800 13384.0000 1.0000
73.4000 13515.0000 1.0000
73.4200 13620.0000 1.0000
73.4400 13399.0000 1.0000
73.4600 13369.0000 1.0000
73.4800 13332.0000 1.0000
73.5000 13500.0000 1.0000
73.5200 13349.0000 1.0000
73.5400 13345.0000 1.0000
73.5600 13391.0000 1.0000
73.5800 13318.0000 1.0000
73.6000 13284.0000 1.0000
73.6200 13430.0000 1.0000
73.6400 13230.0000 1.0000
73.6600 13389.0000 1.0000
73.6800 13498.0000 1.0000
73.7000 13452.0000 1.0000
73.7200 13468.0000 1.0000
73.7400 13247.0000 1.0000
73.7600 13167.0000 1.0000
73.7800 13361.0000 1.0000
73.8000 13374.0000 1.0000
73.8200 13344.0000 1.0000
73.8400 13370.0000 1.0000
73.8600 13375.0000 1.0000
73.8800 13291.0000 1.0000
73.9000 13521.0000 1.0000
73.9200 13451.0000 1.0000
73.9400 13541.0000 1.0000
73.9600 13533.0000 1.0000
73.9800 13660.0000 1.0000
74.0000 13532.0000 1.0000
74.0200 13948.0000 1.0000
74.0400 14134.0000 1.0000
74.0600 14286.0000 1.0000
74.0800 13941.0000 1.0000
74.1000 14048.0000 1.0000
74.1200 14158.0000 1.0000
74.1400 13966.0000 1.0000
74.1600 14016.0000 1.0000
74.1800 13857.0000 1.0000
74.2000 13793.0000 1.0000
74.2200 14020.0000 1.0000
74.2400 14010.0000 1.0000
74.2600 13937.0000 1.0000
74.2800 13992.0000 1.0000
74.3000 14170.0000 1.0000
74.3200 13895.0000 1.0000
74.3400 13808.0000 1.0000
74.3600 13882.0000 1.0000
74.3800 13719.0000 1.0000
74.4000 13796.0000 1.0000
74.4200 13701.0000 1.0000
74.4400 13484.0000 1.0000
74.4600 13622.0000 1.0000
74.4800 13702.0000 1.0000
74.5000 13555.0000 1.0000
74.5200 13389.0000 1.0000
74.5400 13759.0000 1.0000
74.5600 13499.0000 1.0000
74.5800 13412.0000 1.0000
74.6000 13509.0000 1.0000
74.6200 13250.0000 1.0000
74.6400 13474.0000 1.0000
74.6600 13215.0000 1.0000
74.6800 13312.0000 1.0000
74.7000 13557.0000 1.0000
74.7200 13467.0000 1.0000
74.7400 13207.0000 1.0000
74.7600 13327.0000 1.0000
74.7800 13353.0000 1.0000
74.8000 13443.0000 1.0000
74.8200 13382.0000 1.0000
74.8400 13365.0000 1.0000
74.8600 13445.0000 1.0000
74.8800 13257.0000 1.0000
74.9000 13495.0000 1.0000
74.9200 13479.0000 1.0000
74.9400 13387.0000 1.0000
74.9600 13341.0000 1.0000
74.9800 13441.0000 1.0000
75.0000 13369.0000 1.0000
75.0200 13557.0000 1.0000
75.0400 13858.0000 1.0000
75.0600 13820.0000 1.0000
75.0800 13764.0000 1.0000
75.1000 13715.0000 1.0000
75.1200 13693.0000 1.0000
75.1400 13573.0000 1.0000
75.1600 13778.0000 1.0000
75.1800 13522.0000 1.0000
75.2000 13510.0000 1.0000
75.2200 13652.0000 1.0000
75.2400 13738.0000 1.0000
75.2600 13724.0000 1.0000
75.2800 13649.0000 1.0000
75.3000 13634.0000 1.0000
75.3200 13791.0000 1.0000
75.3400 13457.0000 1.0000
75.3600 13547.0000 1.0000
75.3800 13674.0000 1.0000
75.4000 13860.0000 1.0000
75.4200 13777.0000 1.0000
75.4400 14003.0000 1.0000
75.4600 14192.0000 1.0000
75.4800 14296.0000 1.0000
75.5000 13841.0000 1.0000
75.5200 13867.0000 1.0000
75.5400 13690.0000 1.0000
75.5600 13695.0000 1.0000
75.5800 13623.0000 1.0000
75.6000 13606.0000 1.0000
75.6200 13604.0000 1.0000
75.6400 13816.0000 1.0000
75.6600 13756.0000 1.0000
75.6800 13727.0000 1.0000
75.7000 13757.0000 1.0000
75.7200 13672.0000 1.0000
75.7400 13471.0000 1.0000
75.7600 13456.0000 1.0000
75.7800 13398.0000 1.0000
75.8000 13393.0000 1.0000
75.8200 13530.0000 1.0000
75.8400 13418.0000 1.0000
75.8600 13388.0000 1.0000
75.8800 13416.0000 1.0000
75.9000 13583.0000 1.0000
75.9200 13563.0000 1.0000
75.9400 13343.0000 1.0000
75.9600 13520.0000 1.0000
75.9800 13133.0000 1.0000
76.0000 13385.0000 1.0000
76.0200 13483.0000 1.0000
76.0400 13156.0000 1.0000
76.0600 13321.0000 1.0000
76.0800 13219.0000 1.0000
76.1000 13365.0000 1.0000
76.1200 13343.0000 1.0000
76.1400 13393.0000 1.0000
76.1600 13299.0000 1.0000
76.1800 13617.0000 1.0000
76.2000 13459.0000 1.0000
76.2200 13235.0000 1.0000
76.2400 13431.0000 1.0000
76.2600 13227.0000 1.0000
76.2800 13366.0000 1.0000
76.3000 13261.0000 1.0000
76.3200 13479.0000 1.0000
76.3400 13494.0000 1.0000
76.3600 13268.0000 1.0000
76.3800 13534.0000 1.0000
76.4000 13347.0000 1.0000
76.4200 13123.0000 1.0000
76.4400 13563.0000 1.0000
76.4600 13234.0000 1.0000
76.4800 13314.0000 1.0000
76.5000 13428.0000 1.0000
76.5200 13436.0000 1.0000
76.5400 13356.0000 1.0000
76.5600 13522.0000 1.0000
76.5800 13437.0000 1.0000
76.6000 13295.0000 1.0000
76.6200 13419.0000 1.0000
76.6400 13257.0000 1.0000
76.6600 13411.0000 1.0000
76.6800 13222.0000 1.0000
76.7000 13436.0000 1.0000
76.7200 13515.0000 1.0000
76.7400 13461.0000 1.0000
76.7600 13246.0000 1.0000
76.7800 13521.0000 1.0000
76.8000 13490.0000 1.0000
76.8200 13472.0000 1.0000
76.8400 13587.0000 1.0000
76.8600 13543.0000 1.0000
76.8800 13476.0000 1.0000
76.9000 13701.0000 1.0000
76.9200 13441.0000 1.0000
76.9400 13424.0000 1.0000
76.9600 13585.0000 1.0000
76.9800 13482.0000 1.0000
77.0000 13353.0000 1.0000
77.0200 13495.0000 1.0000
77.0400 13382.0000 1.0000
77.0600 13508.0000 1.0000
77.0800 13408.0000 1.0000
77.1000 13621.0000 1.0000
77.1200 13554.0000 1.0000
77.1400 13490.0000 1.0000
77.1600 13288.0000 1.0000
77.1800 13597.0000 1.0000
77.2000 13364.0000 1.0000
77.2200 13498.0000 1.0000
77.2400 13563.0000 1.0000
77.2600 13236.0000 1.0000
77.2800 13330.0000 1.0000
77.3000 13433.0000 1.0000
77.3200 13366.0000 1.0000
77.3400 13334.0000 1.0000
77.3600 13416.0000 1.0000
77.3800 13357.0000 1.0000
77.4000 13370.0000 1.0000
77.4200 13518.0000 1.0000
77.4400 13484.0000 1.0000
77.4600 13397.0000 1.0000
77.4800 13543.0000 1.0000
77.5000 13419.0000 1.0000
77.5200 13567.0000 1.0000
77.5400 13309.0000 1.0000
77.5600 13423.0000 1.0000
77.5800 13538.0000 1.0000
77.6000 13534.0000 1.0000
77.6200 13333.0000 1.0000
77.6400 13595.0000 1.0000
77.6600 13446.0000 1.0000
77.6800 13675.0000 1.0000
77.7000 13406.0000 1.0000
77.7200 13489.0000 1.0000
77.7400 13351.0000 1.0000
77.7600 13511.0000 1.0000
77.7800 13477.0000 1.0000
77.8000 13482.0000 1.0000
77.8200 13613.0000 1.0000
77.8400 13357.0000 1.0000
77.8600 13464.0000 1.0000
77.8800 13308.0000 1.0000
77.9000 13306.0000 1.0000
77.9200 13217.0000 1.0000
77.9400 13494.0000 1.0000
77.9600 13282.0000 1.0000
77.9800 13281.0000 1.0000
78.0000 13262.0000 1.0000
78.0200 13305.0000 1.0000
78.0400 13304.0000 1.0000
78.0600 13293.0000 1.0000
78.0800 13334.0000 1.0000
78.1000 13411.0000 1.0000
78.1200 13623.0000 1.0000
78.1400 13347.0000 1.0000
78.1600 13285.0000 1.0000
78.1800 13309.0000 1.0000
78.2000 13470.0000 1.0000
78.2200 13337.0000 1.0000
78.2400 13379.0000 1.0000
78.2600 13321.0000 1.0000
78.2800 13350.0000 1.0000
78.3000 13386.0000 1.0000
78.3200 13200.0000 1.0000
78.3400 13280.0000 1.0000
78.3600 13151.0000 1.0000
78.3800 13372.0000 1.0000
78.4000 13226.0000 1.0000
78.4200 13243.0000 1.0000
78.4400 13299.0000 1.0000
78.4600 13569.0000 1.0000
78.4800 13410.0000 1.0000
78.5000 13328.0000 1.0000
78.5200 13358.0000 1.0000
78.5400 13512.0000 1.0000
78.5600 13362.0000 1.0000
78.5800 13454.0000 1.0000
78.6000 13388.0000 1.0000
78.6200 13379.0000 1.0000
78.6400 13313.0000 1.0000
78.6600 13373.0000 1.0000
78.6800 13187.0000 1.0000
78.7000 13354.0000 1.0000
78.7200 13517.0000 1.0000
78.7400 13193.0000 1.0000
78.7600 13479.0000 1.0000
78.7800 13337.0000 1.0000
78.8000 13302.0000 1.0000
78.8200 13412.0000 1.0000
78.8400 13291.0000 1.0000
78.8600 13390.0000 1.0000
78.8800 13442.0000 1.0000
78.9000 13474.0000 1.0000
78.9200 13348.0000 1.0000
78.9400 13529.0000 1.0000
78.9600 13534.0000 1.0000
78.9800 13515.0000 1.0000
79.0000 13450.0000 1.0000
79.0200 13554.0000 1.0000
79.0400 13623.0000 1.0000
79.0600 13603.0000 1.0000
79.0800 13574.0000 1.0000
79.1000 13662.0000 1.0000
79.1200 13578.0000 1.0000
79.1400 13491.0000 1.0000
79.1600 13615.0000 1.0000
79.1800 13532.0000 1.0000
79.2000 13354.0000 1.0000
79.2200 13352.0000 1.0000
79.2400 13374.0000 1.0000
79.2600 13611.0000 1.0000
79.2800 13405.0000 1.0000
79.3000 13525.0000 1.0000
79.3200 13384.0000 1.0000
79.3400 13528.0000 1.0000
79.3600 13280.0000 1.0000
79.3800 13503.0000 1.0000
79.4000 13421.0000 1.0000
79.4200 13181.0000 1.0000
79.4400 13324.0000 1.0000
79.4600 13627.0000 1.0000
79.4800 13287.0000 1.0000
79.5000 13499.0000 1.0000
79.5200 13636.0000 1.0000
79.5400 13308.0000 1.0000
79.5600 13215.0000 1.0000
79.5800 13393.0000 1.0000
79.6000 13239.0000 1.0000
79.6200 13411.0000 1.0000
79.6400 13115.0000 1.0000
79.6600 13396.0000 1.0000
79.6800 13260.0000 1.0000
79.7000 13374.0000 1.0000
79.7200 13230.0000 1.0000
79.7400 13165.0000 1.0000
79.7600 13313.0000 1.0000
79.7800 13437.0000 1.0000
79.8000 13130.0000 1.0000
79.8200 13182.0000 1.0000
79.8400 13419.0000 1.0000
79.8600 13386.0000 1.0000
79.8800 13443.0000 1.0000
79.9000 13136.0000 1.0000
79.9200 13682.0000 1.0000
79.9400 13435.0000 1.0000
79.9600 13415.0000 1.0000
79.9800 13499.0000 1.0000
80.0000 13455.0000 1.0000
80.0200 13331.0000 1.0000
80.0400 13233.0000 1.0000
80.0600 13362.0000 1.0000
80.0800 13550.0000 1.0000
80.1000 13459.0000 1.0000
80.1200 13309.0000 1.0000
80.1400 13557.0000 1.0000
80.1600 13330.0000 1.0000
80.1800 13330.0000 1.0000
80.2000 13346.0000 1.0000
80.2200 13289.0000 1.0000
80.2400 13283.0000 1.0000
80.2600 13388.0000 1.0000
80.2800 13449.0000 1.0000
80.3000 13260.0000 1.0000
80.3200 13371.0000 1.0000
80.3400 13295.0000 1.0000
80.3600 13293.0000 1.0000
80.3800 13501.0000 1.0000
80.4000 13377.0000 1.0000
80.4200 13356.0000 1.0000
80.4400 13243.0000 1.0000
80.4600 13300.0000 1.0000
80.4800 13586.0000 1.0000
80.5000 13450.0000 1.0000
80.5200 13433.0000 1.0000
80.5400 13559.0000 1.0000
80.5600 13525.0000 1.0000
80.5800 13681.0000 1.0000
80.6000 13693.0000 1.0000
80.6200 13761.0000 1.0000
80.6400 13589.0000 1.0000
80.6600 13720.0000 1.0000
80.6800 13718.0000 1.0000
80.7000 13635.0000 1.0000
80.7200 13892.0000 1.0000
80.7400 13619.0000 1.0000
80.7600 13759.0000 1.0000
80.7800 13738.0000 1.0000
80.8000 13394.0000 1.0000
80.8200 13520.0000 1.0000
80.8400 13643.0000 1.0000
80.8600 13404.0000 1.0000
80.8800 13397.0000 1.0000
80.9000 13461.0000 1.0000
80.9200 13502.0000 1.0000
80.9400 13348.0000 1.0000
80.9600 13624.0000 1.0000
80.9800 13472.0000 1.0000
81.0000 13613.0000 1.0000
81.0200 13493.0000 1.0000
81.0400 13344.0000 1.0000
81.0600 13421.0000 1.0000
81.0800 13373.0000 1.0000
81.1000 13334.0000 1.0000
81.1200 13260.0000 1.0000
81.1400 13348.0000 1.0000
81.1600 13350.0000 1.0000
81.1800 13473.0000 1.0000
81.2000 13260.0000 1.0000
81.2200 13570.0000 1.0000
81.2400 13334.0000 1.0000
81.2600 13268.0000 1.0000
81.2800 13495.0000 1.0000
81.3000 13495.0000 1.0000
81.3200 13275.0000 1.0000
81.3400 13291.0000 1.0000
81.3600 13251.0000 1.0000
81.3800 13404.0000 1.0000
81.4000 13512.0000 1.0000
81.4200 13544.0000 1.0000
81.4400 13452.0000 1.0000
81.4600 13464.0000 1.0000
81.4800 13556.0000 1.0000
81.5000 13316.0000 1.0000
81.5200 13431.0000 1.0000
81.5400 13444.0000 1.0000
81.5600 13275.0000 1.0000
81.5800 13296.0000 1.0000
81.6000 13497.0000 1.0000
81.6200 13396.0000 1.0000
81.6400 13321.0000 1.0000
81.6600 13302.0000 1.0000
81.6800 13380.0000 1.0000
81.7000 13331.0000 1.0000
81.7200 13360.0000 1.0000
81.7400 13577.0000 1.0000
81.7600 13453.0000 1.0000
81.7800 13353.0000 1.0000
81.8000 13375.0000 1.0000
81.8200 13414.0000 1.0000
81.8400 13286.0000 1.0000
81.8600 13236.0000 1.0000
81.8800 13370.0000 1.0000
81.9000 13422.0000 1.0000
81.9200 13376.0000 1.0000
81.9400 13358.0000 1.0000
81.9600 13372.0000 1.0000
81.9800 13179.0000 1.0000
82.0000 13245.0000 1.0000
82.0200 13535.0000 1.0000
82.0400 13176.0000 1.0000
82.0600 13305.0000 1.0000
82.0800 13263.0000 1.0000
82.1000 13117.0000 1.0000
82.1200 13232.0000 1.0000
82.1400 13190.0000 1.0000
82.1600 13226.0000 1.0000
82.1800 13488.0000 1.0000
82.2000 13258.0000 1.0000
82.2200 13171.0000 1.0000
82.2400 13419.0000 1.0000
82.2600 13137.0000 1.0000
82.2800 13357.0000 1.0000
82.3000 13336.0000 1.0000
82.3200 13290.0000 1.0000
82.3400 13372.0000 1.0000
82.3600 13183.0000 1.0000
82.3800 13261.0000 1.0000
82.4000 13324.0000 1.0000
82.4200 13260.0000 1.0000
82.4400 13007.0000 1.0000
82.4600 13279.0000 1.0000
82.4800 13276.0000 1.0000
82.5000 13295.0000 1.0000
82.5200 13238.0000 1.0000
82.5400 13336.0000 1.0000
82.5600 13245.0000 1.0000
82.5800 13431.0000 1.0000
82.6000 13315.0000 1.0000
82.6200 13437.0000 1.0000
82.6400 13295.0000 1.0000
82.6600 13417.0000 1.0000
82.6800 13514.0000 1.0000
82.7000 13264.0000 1.0000
82.7200 13262.0000 1.0000
82.7400 13288.0000 1.0000
82.7600 13451.0000 1.0000
82.7800 13267.0000 1.0000
82.8000 13233.0000 1.0000
82.8200 13317.0000 1.0000
82.8400 13418.0000 1.0000
82.8600 13334.0000 1.0000
82.8800 13416.0000 1.0000
82.9000 13322.0000 1.0000
82.9200 13536.0000 1.0000
82.9400 13635.0000 1.0000
82.9600 13441.0000 1.0000
82.9800 13526.0000 1.0000
83.0000 13492.0000 1.0000
83.0200 13337.0000 1.0000
83.0400 13371.0000 1.0000
83.0600 13685.0000 1.0000
83.0800 13570.0000 1.0000
83.1000 13262.0000 1.0000
83.1200 13501.0000 1.0000
83.1400 13616.0000 1.0000
83.1600 13624.0000 1.0000
83.1800 13433.0000 1.0000
83.2000 13303.0000 1.0000
83.2200 13409.0000 1.0000
83.2400 13523.0000 1.0000
83.2600 13384.0000 1.0000
83.2800 13381.0000 1.0000
83.3000 13121.0000 1.0000
83.3200 13252.0000 1.0000
83.3400 13354.0000 1.0000
83.3600 13465.0000 1.0000
83.3800 13384.0000 1.0000
83.4000 13429.0000 1.0000
83.4200 13403.0000 1.0000
83.4400 13379.0000 1.0000
83.4600 13367.0000 1.0000
83.4800 13195.0000 1.0000
83.5000 13147.0000 1.0000
83.5200 13257.0000 1.0000
83.5400 13507.0000 1.0000
83.5600 13249.0000 1.0000
83.5800 13247.0000 1.0000
83.6000 13349.0000 1.0000
83.6200 13400.0000 1.0000
83.6400 13347.0000 1.0000
83.6600 13362.0000 1.0000
83.6800 13409.0000 1.0000
83.7000 13446.0000 1.0000
83.7200 13211.0000 1.0000
83.7400 13255.0000 1.0000
83.7600 13462.0000 1.0000
83.7800 13290.0000 1.0000
83.8000 13198.0000 1.0000
83.8200 13176.0000 1.0000
83.8400 13506.0000 1.0000
83.8600 13503.0000 1.0000
83.8800 13339.0000 1.0000
83.9000 13383.0000 1.0000
83.9200 13233.0000 1.0000
83.9400 13322.0000 1.0000
83.9600 13306.0000 1.0000
83.9800 13382.0000 1.0000
84.0000 13333.0000 1.0000
84.0200 13279.0000 1.0000
84.0400 13455.0000 1.0000
84.0600 13450.0000 1.0000
84.0800 13342.0000 1.0000
84.1000 13287.0000 1.0000
84.1200 13376.0000 1.0000
84.1400 13398.0000 1.0000
84.1600 13348.0000 1.0000
84.1800 13371.0000 1.0000
84.2000 13285.0000 1.0000
84.2200 13051.0000 1.0000
84.2400 13246.0000 1.0000
84.2600 13349.0000 1.0000
84.2800 13175.0000 1.0000
84.3000 13479.0000 1.0000
84.3200 13241.0000 1.0000
84.3400 13554.0000 1.0000
84.3600 13393.0000 1.0000
84.3800 13407.0000 1.0000
84.4000 13307.0000 1.0000
84.4200 13303.0000 1.0000
84.4400 13228.0000 1.0000
84.4600 13395.0000 1.0000
84.4800 13264.0000 1.0000
84.5000 13134.0000 1.0000
84.5200 13437.0000 1.0000
84.5400 13379.0000 1.0000
84.5600 13275.0000 1.0000
84.5800 13303.0000 1.0000
84.6000 13234.0000 1.0000
84.6200 13482.0000 1.0000
84.6400 13337.0000 1.0000
84.6600 13499.0000 1.0000
84.6800 13332.0000 1.0000
84.7000 13570.0000 1.0000
84.7200 13414.0000 1.0000
84.7400 13286.0000 1.0000
84.7600 13388.0000 1.0000
84.7800 13454.0000 1.0000
84.8000 13386.0000 1.0000
84.8200 13381.0000 1.0000
84.8400 13610.0000 1.0000
84.8600 13673.0000 1.0000
84.8800 13783.0000 1.0000
84.9000 13609.0000 1.0000
84.9200 13966.0000 1.0000
84.9400 13897.0000 1.0000
84.9600 13847.0000 1.0000
84.9800 13683.0000 1.0000
85.0000 13575.0000 1.0000
85.0200 13652.0000 1.0000
85.0400 13258.0000 1.0000
85.0600 13541.0000 1.0000
85.0800 13453.0000 1.0000
85.1000 13466.0000 1.0000
85.1200 13450.0000 1.0000
85.1400 13402.0000 1.0000
85.1600 13528.0000 1.0000
85.1800 13639.0000 1.0000
85.2000 13565.0000 1.0000
85.2200 13554.0000 1.0000
85.2400 13693.0000 1.0000
85.2600 13367.0000 1.0000
85.2800 13219.0000 1.0000
85.3000 13313.0000 1.0000
85.3200 13184.0000 1.0000
85.3400 13513.0000 1.0000
85.3600 13421.0000 1.0000
85.3800 13236.0000 1.0000
85.4000 13461.0000 1.0000
85.4200 13584.0000 1.0000
85.4400 13379.0000 1.0000
85.4600 13218.0000 1.0000
85.4800 13192.0000 1.0000
85.5000 13278.0000 1.0000
85.5200 13246.0000 1.0000
85.5400 13225.0000 1.0000
85.5600 13398.0000 1.0000
85.5800 13061.0000 1.0000
85.6000 13375.0000 1.0000
85.6200 13196.0000 1.0000
85.6400 13222.0000 1.0000
85.6600 13048.0000 1.0000
85.6800 13224.0000 1.0000
85.7000 12961.0000 1.0000
85.7200 13121.0000 1.0000
85.7400 13239.0000 1.0000
85.7600 13369.0000 1.0000
85.7800 13258.0000 1.0000
85.8000 13179.0000 1.0000
85.8200 13238.0000 1.0000
85.8400 13201.0000 1.0000
85.8600 13491.0000 1.0000
85.8800 13253.0000 1.0000
85.9000 13345.0000 1.0000
85.9200 13214.0000 1.0000
85.9400 13063.0000 1.0000
85.9600 13227.0000 1.0000
85.9800 13411.0000 1.0000
86.0000 13091.0000 1.0000
86.0200 13145.0000 1.0000
86.0400 13117.0000 1.0000
86.0600 13157.0000 1.0000
86.0800 12933.0000 1.0000
86.1000 13195.0000 1.0000
86.1200 13507.0000 1.0000
86.1400 13048.0000 1.0000
86.1600 13284.0000 1.0000
86.1800 13223.0000 1.0000
86.2000 13478.0000 1.0000
86.2200 13319.0000 1.0000
86.2400 13148.0000 1.0000
86.2600 13328.0000 1.0000
86.2800 13064.0000 1.0000
86.3000 13378.0000 1.0000
86.3200 13259.0000 1.0000
86.3400 13296.0000 1.0000
86.3600 13448.0000 1.0000
86.3800 13247.0000 1.0000
86.4000 13417.0000 1.0000
86.4200 13319.0000 1.0000
86.4400 13117.0000 1.0000
86.4600 13204.0000 1.0000
86.4800 13602.0000 1.0000
86.5000 13308.0000 1.0000
86.5200 13423.0000 1.0000
86.5400 13428.0000 1.0000
86.5600 13240.0000 1.0000
86.5800 13349.0000 1.0000
86.6000 13348.0000 1.0000
86.6200 13340.0000 1.0000
86.6400 13477.0000 1.0000
86.6600 13247.0000 1.0000
86.6800 13310.0000 1.0000
86.7000 13283.0000 1.0000
86.7200 13451.0000 1.0000
86.7400 13364.0000 1.0000
86.7600 13545.0000 1.0000
86.7800 13386.0000 1.0000
86.8000 13373.0000 1.0000
86.8200 13575.0000 1.0000
86.8400 13534.0000 1.0000
86.8600 13493.0000 1.0000
86.8800 13592.0000 1.0000
86.9000 13517.0000 1.0000
86.9200 13500.0000 1.0000
86.9400 13739.0000 1.0000
86.9600 13632.0000 1.0000
86.9800 13467.0000 1.0000
87.0000 13401.0000 1.0000
87.0200 13478.0000 1.0000
87.0400 13404.0000 1.0000
87.0600 13651.0000 1.0000
87.0800 13434.0000 1.0000
87.1000 13270.0000 1.0000
87.1200 13328.0000 1.0000
87.1400 13492.0000 1.0000
87.1600 13396.0000 1.0000
87.1800 13393.0000 1.0000
87.2000 13653.0000 1.0000
87.2200 13275.0000 1.0000
87.2400 13319.0000 1.0000
87.2600 13296.0000 1.0000
87.2800 13202.0000 1.0000
87.3000 13244.0000 1.0000
87.3200 13258.0000 1.0000
87.3400 13353.0000 1.0000
87.3600 13362.0000 1.0000
87.3800 13324.0000 1.0000
87.4000 13396.0000 1.0000
87.4200 13604.0000 1.0000
87.4400 13170.0000 1.0000
87.4600 13321.0000 1.0000
87.4800 13089.0000 1.0000
87.5000 13209.0000 1.0000
87.5200 13237.0000 1.0000
87.5400 13460.0000 1.0000
87.5600 13340.0000 1.0000
87.5800 13191.0000 1.0000
87.6000 13244.0000 1.0000
87.6200 13465.0000 1.0000
87.6400 13310.0000 1.0000
87.6600 13355.0000 1.0000
87.6800 13222.0000 1.0000
87.7000 13184.0000 1.0000
87.7200 13314.0000 1.0000
87.7400 13157.0000 1.0000
87.7600 13200.0000 1.0000
87.7800 13636.0000 1.0000
87.8000 13040.0000 1.0000
87.8200 13301.0000 1.0000
87.8400 13346.0000 1.0000
87.8600 13127.0000 1.0000
87.8800 13232.0000 1.0000
87.9000 13230.0000 1.0000
87.9200 13281.0000 1.0000
87.9400 13467.0000 1.0000
87.9600 13434.0000 1.0000
87.9800 13306.0000 1.0000
88.0000 13176.0000 1.0000
88.0200 13277.0000 1.0000
88.0400 13109.0000 1.0000
88.0600 13228.0000 1.0000
88.0800 13245.0000 1.0000
88.1000 13471.0000 1.0000
88.1200 13191.0000 1.0000
88.1400 13169.0000 1.0000
88.1600 13219.0000 1.0000
88.1800 13428.0000 1.0000
88.2000 13019.0000 1.0000
88.2200 13258.0000 1.0000
88.2400 13387.0000 1.0000
88.2600 13342.0000 1.0000
88.2800 13121.0000 1.0000
88.3000 13163.0000 1.0000
88.3200 13278.0000 1.0000
88.3400 13316.0000 1.0000
88.3600 13310.0000 1.0000
88.3800 13479.0000 1.0000
88.4000 13323.0000 1.0000
88.4200 13421.0000 1.0000
88.4400 13249.0000 1.0000
88.4600 13603.0000 1.0000
88.4800 13431.0000 1.0000
88.5000 13811.0000 1.0000
88.5200 13756.0000 1.0000
88.5400 13655.0000 1.0000
88.5600 13827.0000 1.0000
88.5800 13678.0000 1.0000
88.6000 13451.0000 1.0000
88.6200 13609.0000 1.0000
88.6400 13417.0000 1.0000
88.6600 13528.0000 1.0000
88.6800 13551.0000 1.0000
88.7000 13439.0000 1.0000
88.7200 13617.0000 1.0000
88.7400 13609.0000 1.0000
88.7600 13647.0000 1.0000
88.7800 13457.0000 1.0000
88.8000 13502.0000 1.0000
88.8200 13655.0000 1.0000
88.8400 13561.0000 1.0000
88.8600 13723.0000 1.0000
88.8800 13515.0000 1.0000
88.9000 13562.0000 1.0000
88.9200 13599.0000 1.0000
88.9400 13330.0000 1.0000
88.9600 13396.0000 1.0000
88.9800 13318.0000 1.0000
89.0000 13378.0000 1.0000
89.0200 13272.0000 1.0000
89.0400 13460.0000 1.0000
89.0600 13433.0000 1.0000
89.0800 13347.0000 1.0000
89.1000 13426.0000 1.0000
89.1200 13169.0000 1.0000
89.1400 13263.0000 1.0000
89.1600 13371.0000 1.0000
89.1800 13251.0000 1.0000
89.2000 13256.0000 1.0000
89.2200 13432.0000 1.0000
89.2400 13264.0000 1.0000
89.2600 13335.0000 1.0000
89.2800 13456.0000 1.0000
89.3000 13351.0000 1.0000
89.3200 13111.0000 1.0000
89.3400 13278.0000 1.0000
89.3600 13294.0000 1.0000
89.3800 13201.0000 1.0000
89.4000 13225.0000 1.0000
89.4200 13279.0000 1.0000
89.4400 13313.0000 1.0000
89.4600 13233.0000 1.0000
89.4800 13244.0000 1.0000
89.5000 13482.0000 1.0000
89.5200 13350.0000 1.0000
89.5400 13469.0000 1.0000
89.5600 13497.0000 1.0000
89.5800 13475.0000 1.0000
89.6000 13579.0000 1.0000
89.6200 13559.0000 1.0000
89.6400 13718.0000 1.0000
89.6600 13859.0000 1.0000
89.6800 13943.0000 1.0000
89.7000 14157.0000 1.0000
89.7200 14127.0000 1.0000
89.7400 14276.0000 1.0000
89.7600 14263.0000 1.0000
89.7800 14212.0000 1.0000
89.8000 14231.0000 1.0000
89.8200 14088.0000 1.0000
89.8400 14007.0000 1.0000
89.8600 14004.0000 1.0000
89.8800 13987.0000 1.0000
89.9000 14075.0000 1.0000
89.9200 13924.0000 1.0000
89.9400 13799.0000 1.0000
89.9600 14057.0000 1.0000
89.9800 14015.0000 1.0000
90.0000 14031.0000 1.0000
*RAS_INT_END
*RAS_TEMPERATURE_START
*RAS_TEMPERATURE_END
*RAS_DATA_END
