*RAS_DATA_START
*RAS_HEADER_START
*DISP_FMT_X "%.2f"
*DISP_FMT_Y "%.0f"
*DISP_FULLSCALE "99759.0000000000"
*DISP_LINE_COLOR "255.0000000000"
*DISP_LINE_STYLE "0.0000000000"
*DISP_LINE_WIDTH "0.2500000000"
*DISP_NOTE "測定データ-4"
*DISP_OFFSET_Y "0.0000000000"
*DISP_PEAKSEARCH_UNIT_Y "cps"
*DISP_RANGE_BOTTOM "0.0000000000"
*DISP_RANGE_LEFT "20.0000000000"
*DISP_RANGE_LOGCUTOFF "0.0100000000"
*DISP_RANGE_RIGHT "90.0000000000"
*DISP_RANGE_TOP "99759.0000000000"
*DISP_SCALE_MODE_Y "0.0000000000"
*DISP_TAB_NAME "2θ/θ"
*DISP_TITLE_Y "強度"
*DISP_UNIT_Y "cps"
*DISP_WINDOW_NAME "MSG_MACROENGINE"
*FILE_COMMENT " "
*FILE_MD5 ""
*FILE_MEMO " "
*FILE_OPERATOR "Administrator"
*FILE_SAMPLE " "
*FILE_TYPE "RAS_RAW"
*FILE_USERGROUP "システムマネージャ"
*FILE_VERSION "1.0000000000"
*HW_ATTACHMENT_ID "ATT0025"
*HW_ATTACHMENT_NAME "標準|Standard"
*HW_COUNTER_ID-0 "CUT0025"
*HW_COUNTER_ID-1 "CUT0020"
*HW_COUNTER_ID-2 "CUT0020"
*HW_COUNTER_ID-3 "CSL0021"
*HW_COUNTER_ID-4 "CMC0021"
*HW_COUNTER_NAME-0 "D/teX Ultra|D/teX Ultra"
*HW_COUNTER_NAME-1 "None|None"
*HW_COUNTER_NAME-2 "None|None"
*HW_COUNTER_NAME-3 "BBM|BBM"
*HW_COUNTER_NAME-4 "検出器モノクロメータ|Detector monochromator"
*HW_COUNTER_SELECT_NAME "D/teX Ultra|D/teX Ultra"
*HW_GONIOMETER_ID "GON0023"
*HW_GONIOMETER_NAME "SmartLab|SmartLab"
*HW_GONIOMETER_RADIUS-0 "90.0"
*HW_GONIOMETER_RADIUS-1 "114.0"
*HW_GONIOMETER_RADIUS-2 "190.0"
*HW_GONIOMETER_RADIUS-3 "300.0"
*HW_GONIOMETER_RADIUS-4 "187.0"
*HW_GONIOMETER_RADIUS-5 "300.0"
*HW_GONIOMETER_RADIUS-6 "113.0"
*HW_GONIOMETER_RADIUS-7 "331.0"
*HW_I_OPT_ID-0 "CBO0021"
*HW_I_OPT_ID-1 "ICR0023"
*HW_I_OPT_ID-2 "ISL0021"
*HW_I_OPT_ID-3 "ISO0021"
*HW_I_OPT_ID-4 "IAD0021"
*HW_I_OPT_ID-5 "IPR0001"
*HW_I_OPT_NAME-0 "CBOユニット|CBO unit"
*HW_I_OPT_NAME-1 "標準入射光学ユニット|Standard incident optical unit"
*HW_I_OPT_NAME-2 "標準入射スリットボックス|Standard incident slit box"
*HW_I_OPT_NAME-3 "入射平行スリット|Incident parallel slit"
*HW_I_OPT_NAME-4 "長手制限スリット|Length limiting slit"
*HW_I_OPT_NAME-5 "None|None"
*HW_R_ATTENUATER_AUTOMODE "0"
*HW_R_OPT_ID-0 "RSS0021"
*HW_R_OPT_ID-1 "RCR0023"
*HW_R_OPT_ID-2 "RSO0021"
*HW_R_OPT_ID-3 "RRS0021"
*HW_R_OPT_ID-4 "ATN0021"
*HW_R_OPT_ID-5 "RFL0021"
*HW_R_OPT_ID-6 "RAD0021"
*HW_R_OPT_NAME-0 "標準受光スリットボックス1|Standard receiving slit box # 1"
*HW_R_OPT_NAME-1 "標準受光光学ユニット1|Standard receiving unit # 1"
*HW_R_OPT_NAME-2 "標準受光光学ユニット2|Standard receiving optical unit # 2"
*HW_R_OPT_NAME-3 "標準受光スリットボックス2|Standard receiving slit box # 2"
*HW_R_OPT_NAME-4 "標準アッテネータ|Standard Attenuator"
*HW_R_OPT_NAME-5 "Cu Kβ|Cu K-beta"
*HW_R_OPT_NAME-6 "調整用受光スリット|Alignment receiving slit"
*HW_SAMPLE_HOLDER_ID "SMP0023"
*HW_SAMPLE_HOLDER_NAME "標準Zステージ|Standard Z stage"
*HW_XG_CURRENT_MAX "50"
*HW_XG_CURRENT_MIN "2"
*HW_XG_CURRENT_RESOLUTION "2"
*HW_XG_CURRENT_UNIT "mA"
*HW_XG_FOCUS "1mm x 10mm"
*HW_XG_FOCUS_TYPE "Normal"
*HW_XG_ID ""
*HW_XG_NAME "3kW 封入管(ID:1200)|3kW Sealed tube(ID:1200)"
*HW_XG_TARGET_ATOMIC_NUMBER "29.0000000000"
*HW_XG_TARGET_NAME "Cu"
*HW_XG_TYPE "Hermetic"
*HW_XG_VOLTAGE_MAX "60"
*HW_XG_VOLTAGE_MIN "20"
*HW_XG_VOLTAGE_RESOLUTION "2"
*HW_XG_VOLTAGE_UNIT "kV"
*HW_XG_WATT_MAX "2"
*HW_XG_WATT_UNIT "kW"
*HW_XG_WAVE_LENGTH_ALPHA1 "1.540593"
*HW_XG_WAVE_LENGTH_ALPHA2 "1.544414"
*HW_XG_WAVE_LENGTH_BETA "1.392250"
*MEAS_COND_AXIS_NAME-0 "2θ/θ"
*MEAS_COND_AXIS_NAME-1 "2θ"
*MEAS_COND_AXIS_NAME-2 "ω"
*MEAS_COND_AXIS_NAME-3 "Z"
*MEAS_COND_AXIS_NAME-4 "2θ/ω"
*MEAS_COND_AXIS_NAME-5 "θs"
*MEAS_COND_AXIS_NAME-6 "θd"
*MEAS_COND_AXIS_NAME-7 "Ts"
*MEAS_COND_AXIS_NAME-8 "CBO選択スリット"
*MEAS_COND_AXIS_NAME-9 "M"
*MEAS_COND_AXIS_NAME-10 "入射平行スリット"
*MEAS_COND_AXIS_NAME-11 "入射スリット"
*MEAS_COND_AXIS_NAME-12 ""
*MEAS_COND_AXIS_NAME-13 "Zs"
*MEAS_COND_AXIS_NAME-14 "入射光学素子"
*MEAS_COND_AXIS_NAME-15 "長手制限スリット"
*MEAS_COND_AXIS_NAME-16 "センタースリット"
*MEAS_COND_AXIS_NAME-17 "フィルター"
*MEAS_COND_AXIS_NAME-18 "受光スリット1"
*MEAS_COND_AXIS_NAME-19 "受光スリット2"
*MEAS_COND_AXIS_NAME-20 "受光光学素子"
*MEAS_COND_AXIS_NAME-21 "受光平行スリット"
*MEAS_COND_AXIS_NAME-22 "調整用受光スリット"
*MEAS_COND_AXIS_NAME-23 ""
*MEAS_COND_AXIS_NAME-24 ""
*MEAS_COND_AXIS_NAME-25 "Zd"
*MEAS_COND_AXIS_NAME-26 "アッテネータ"
*MEAS_COND_AXIS_NAME-27 "検出器モノクロメータ"
*MEAS_COND_AXIS_NAME-28 "モノクロメータスリット"
*MEAS_COND_AXIS_NAME-29 "プライマリビーム"
*MEAS_COND_AXIS_NAME-30 "PHA"
*MEAS_COND_AXIS_NAME_INTERNAL-0 "TwoThetaTheta"
*MEAS_COND_AXIS_NAME_INTERNAL-1 "TwoTheta"
*MEAS_COND_AXIS_NAME_INTERNAL-2 "Omega"
*MEAS_COND_AXIS_NAME_INTERNAL-3 "Z"
*MEAS_COND_AXIS_NAME_INTERNAL-4 "TwoThetaOmega"
*MEAS_COND_AXIS_NAME_INTERNAL-5 "ThetaS"
*MEAS_COND_AXIS_NAME_INTERNAL-6 "ThetaD"
*MEAS_COND_AXIS_NAME_INTERNAL-7 "Ts"
*MEAS_COND_AXIS_NAME_INTERNAL-8 "CBO"
*MEAS_COND_AXIS_NAME_INTERNAL-9 "CBO-M"
*MEAS_COND_AXIS_NAME_INTERNAL-10 "IncidentSollerSlit"
*MEAS_COND_AXIS_NAME_INTERNAL-11 "IncidentSlitBox"
*MEAS_COND_AXIS_NAME_INTERNAL-12 "IncidentSlitBox-_Axis"
*MEAS_COND_AXIS_NAME_INTERNAL-13 "Zs"
*MEAS_COND_AXIS_NAME_INTERNAL-14 "IncidentMonochromator"
*MEAS_COND_AXIS_NAME_INTERNAL-15 "IncidentAxdSlit"
*MEAS_COND_AXIS_NAME_INTERNAL-16 "CenterSlit"
*MEAS_COND_AXIS_NAME_INTERNAL-17 "Filter"
*MEAS_COND_AXIS_NAME_INTERNAL-18 "ReceivingSlitBox1"
*MEAS_COND_AXIS_NAME_INTERNAL-19 "ReceivingSlitBox2"
*MEAS_COND_AXIS_NAME_INTERNAL-20 "ReceivingOptics"
*MEAS_COND_AXIS_NAME_INTERNAL-21 "ReceivingSollerSlit"
*MEAS_COND_AXIS_NAME_INTERNAL-22 "ReceivingAxdSlit"
*MEAS_COND_AXIS_NAME_INTERNAL-23 "ReceivingSlitBox1-_Axis"
*MEAS_COND_AXIS_NAME_INTERNAL-24 "ReceivingSlitBox2-_Axis"
*MEAS_COND_AXIS_NAME_INTERNAL-25 "ReceivingSlitBox2-Zd"
*MEAS_COND_AXIS_NAME_INTERNAL-26 "Attenuator"
*MEAS_COND_AXIS_NAME_INTERNAL-27 "CounterMonochromator"
*MEAS_COND_AXIS_NAME_INTERNAL-28 "CounterSlit"
*MEAS_COND_AXIS_NAME_INTERNAL-29 "IncidentPrimary"
*MEAS_COND_AXIS_NAME_INTERNAL-30 "PHA"
*MEAS_COND_AXIS_NAME_MAGICNO-0 "83951616.0000000000"
*MEAS_COND_AXIS_NAME_MAGICNO-1 "268632064.0000000000"
*MEAS_COND_AXIS_NAME_MAGICNO-2 "268500992.0000000000"
*MEAS_COND_AXIS_NAME_MAGICNO-3 "285278208.0000000000"
*MEAS_COND_AXIS_NAME_MAGICNO-4 "83951616.0000000000"
*MEAS_COND_AXIS_NAME_MAGICNO-5 "131072.0000000000"
*MEAS_COND_AXIS_NAME_MAGICNO-6 "131072.0000000000"
*MEAS_COND_AXIS_NAME_MAGICNO-7 "318898176.0000000000"
*MEAS_COND_AXIS_NAME_MAGICNO-8 "20971521.0000000000"
*MEAS_COND_AXIS_NAME_MAGICNO-9 "285343744.0000000000"
*MEAS_COND_AXIS_NAME_MAGICNO-10 "20971521.0000000000"
*MEAS_COND_AXIS_NAME_MAGICNO-11 "22020097.0000000000"
*MEAS_COND_AXIS_NAME_MAGICNO-12 "25165824.0000000000"
*MEAS_COND_AXIS_NAME_MAGICNO-13 "318898176.0000000000"
*MEAS_COND_AXIS_NAME_MAGICNO-14 "1.0000000000"
*MEAS_COND_AXIS_NAME_MAGICNO-15 "20971521.0000000000"
*MEAS_COND_AXIS_NAME_MAGICNO-16 "20971521.0000000000"
*MEAS_COND_AXIS_NAME_MAGICNO-17 "20971521.0000000000"
*MEAS_COND_AXIS_NAME_MAGICNO-18 "23068673.0000000000"
*MEAS_COND_AXIS_NAME_MAGICNO-19 "23068673.0000000000"
*MEAS_COND_AXIS_NAME_MAGICNO-20 "20971521.0000000000"
*MEAS_COND_AXIS_NAME_MAGICNO-21 "20971521.0000000000"
*MEAS_COND_AXIS_NAME_MAGICNO-22 "20971521.0000000000"
*MEAS_COND_AXIS_NAME_MAGICNO-23 "25165824.0000000000"
*MEAS_COND_AXIS_NAME_MAGICNO-24 "25165824.0000000000"
*MEAS_COND_AXIS_NAME_MAGICNO-25 "285343744.0000000000"
*MEAS_COND_AXIS_NAME_MAGICNO-26 "17301505.0000000000"
*MEAS_COND_AXIS_NAME_MAGICNO-27 "20971521.0000000000"
*MEAS_COND_AXIS_NAME_MAGICNO-28 "20971521.0000000000"
*MEAS_COND_AXIS_NAME_MAGICNO-29 "20971521.0000000000"
*MEAS_COND_AXIS_NAME_MAGICNO-30 "0.0000000000"
*MEAS_COND_AXIS_OFFSET-0 "-"
*MEAS_COND_AXIS_OFFSET-1 "-0.1081000000"
*MEAS_COND_AXIS_OFFSET-2 "0.3758000000"
*MEAS_COND_AXIS_OFFSET-3 "-"
*MEAS_COND_AXIS_OFFSET-4 "-"
*MEAS_COND_AXIS_OFFSET-5 "0.3758000000"
*MEAS_COND_AXIS_OFFSET-6 "-0.4839000000"
*MEAS_COND_AXIS_OFFSET-7 "-"
*MEAS_COND_AXIS_OFFSET-8 "-"
*MEAS_COND_AXIS_OFFSET-9 "-"
*MEAS_COND_AXIS_OFFSET-10 "-"
*MEAS_COND_AXIS_OFFSET-11 "-"
*MEAS_COND_AXIS_OFFSET-12 "-"
*MEAS_COND_AXIS_OFFSET-13 "-"
*MEAS_COND_AXIS_OFFSET-14 "-"
*MEAS_COND_AXIS_OFFSET-15 "-"
*MEAS_COND_AXIS_OFFSET-16 "-"
*MEAS_COND_AXIS_OFFSET-17 "-"
*MEAS_COND_AXIS_OFFSET-18 "-"
*MEAS_COND_AXIS_OFFSET-19 "-"
*MEAS_COND_AXIS_OFFSET-20 "-"
*MEAS_COND_AXIS_OFFSET-21 "-"
*MEAS_COND_AXIS_OFFSET-22 "-"
*MEAS_COND_AXIS_OFFSET-23 "-"
*MEAS_COND_AXIS_OFFSET-24 "-"
*MEAS_COND_AXIS_OFFSET-25 "-"
*MEAS_COND_AXIS_OFFSET-26 "-"
*MEAS_COND_AXIS_OFFSET-27 "-"
*MEAS_COND_AXIS_OFFSET-28 "-"
*MEAS_COND_AXIS_OFFSET-29 "-"
*MEAS_COND_AXIS_OFFSET-30 "-"
*MEAS_COND_AXIS_POSITION-0 "0.0000000000"
*MEAS_COND_AXIS_POSITION-1 "0.0000000000"
*MEAS_COND_AXIS_POSITION-2 "0.0000000000"
*MEAS_COND_AXIS_POSITION-3 "-0.5500000000"
*MEAS_COND_AXIS_POSITION-4 "0.0000000000"
*MEAS_COND_AXIS_POSITION-5 "0.0000000000"
*MEAS_COND_AXIS_POSITION-6 "0.0000000000"
*MEAS_COND_AXIS_POSITION-7 "-0.4278800000"
*MEAS_COND_AXIS_POSITION-8 "BB"
*MEAS_COND_AXIS_POSITION-9 "0.0000000000"
*MEAS_COND_AXIS_POSITION-10 "Soller_slit_5.0deg"
*MEAS_COND_AXIS_POSITION-11 "2/3deg"
*MEAS_COND_AXIS_POSITION-12 "2.2088000000"
*MEAS_COND_AXIS_POSITION-13 "-0.4140600000"
*MEAS_COND_AXIS_POSITION-14 "0.0000000000"
*MEAS_COND_AXIS_POSITION-15 "10.0mm"
*MEAS_COND_AXIS_POSITION-16 "None"
*MEAS_COND_AXIS_POSITION-17 "Cu_K-beta"
*MEAS_COND_AXIS_POSITION-18 "13.000mm"
*MEAS_COND_AXIS_POSITION-19 "13.000mm"
*MEAS_COND_AXIS_POSITION-20 "No_unit"
*MEAS_COND_AXIS_POSITION-21 "Soller_slit_5.0deg"
*MEAS_COND_AXIS_POSITION-22 "None"
*MEAS_COND_AXIS_POSITION-23 "13.0000000000"
*MEAS_COND_AXIS_POSITION-24 "13.0000000000"
*MEAS_COND_AXIS_POSITION-25 "0.0109400000"
*MEAS_COND_AXIS_POSITION-26 "Open"
*MEAS_COND_AXIS_POSITION-27 "None"
*MEAS_COND_AXIS_POSITION-28 "None"
*MEAS_COND_AXIS_POSITION-29 "None"
*MEAS_COND_AXIS_POSITION-30 "38.0000000000"
*MEAS_COND_AXIS_UNIT-0 "deg"
*MEAS_COND_AXIS_UNIT-1 "deg"
*MEAS_COND_AXIS_UNIT-2 "deg"
*MEAS_COND_AXIS_UNIT-3 "mm"
*MEAS_COND_AXIS_UNIT-4 "deg"
*MEAS_COND_AXIS_UNIT-5 "deg"
*MEAS_COND_AXIS_UNIT-6 "deg"
*MEAS_COND_AXIS_UNIT-7 "mm"
*MEAS_COND_AXIS_UNIT-8 ""
*MEAS_COND_AXIS_UNIT-9 "pulse"
*MEAS_COND_AXIS_UNIT-10 ""
*MEAS_COND_AXIS_UNIT-11 ""
*MEAS_COND_AXIS_UNIT-12 "mm"
*MEAS_COND_AXIS_UNIT-13 "mm"
*MEAS_COND_AXIS_UNIT-14 ""
*MEAS_COND_AXIS_UNIT-15 ""
*MEAS_COND_AXIS_UNIT-16 ""
*MEAS_COND_AXIS_UNIT-17 ""
*MEAS_COND_AXIS_UNIT-18 ""
*MEAS_COND_AXIS_UNIT-19 ""
*MEAS_COND_AXIS_UNIT-20 ""
*MEAS_COND_AXIS_UNIT-21 ""
*MEAS_COND_AXIS_UNIT-22 ""
*MEAS_COND_AXIS_UNIT-23 "mm"
*MEAS_COND_AXIS_UNIT-24 "mm"
*MEAS_COND_AXIS_UNIT-25 "mm"
*MEAS_COND_AXIS_UNIT-26 ""
*MEAS_COND_AXIS_UNIT-27 ""
*MEAS_COND_AXIS_UNIT-28 ""
*MEAS_COND_AXIS_UNIT-29 ""
*MEAS_COND_AXIS_UNIT-30 "div"
*MEAS_COND_COUNTER_CNTLOSS_CORR "0.0000000000"
*MEAS_COND_COUNTER_PHABASE "38.0000000000"
*MEAS_COND_COUNTER_PHAWINDOW "16.0000000000"
*MEAS_COND_COUNTER_PHA_UNIT "div"
*MEAS_COND_COUNTER_TAUDIFF "30.0000000000"
*MEAS_COND_COUNTER_TAUINT "0.0000000000"
*MEAS_COND_IRRADIATION_MODE "OFF"
*MEAS_COND_IRRADIATION_WIDTH ""
*MEAS_COND_OPT_ATTR "集中法"
*MEAS_COND_OPT_NAME "@集中法"
*MEAS_COND_UNSYMMETRIC_MODE "OFF"
*MEAS_COND_XG_CURRENT "30.0000000000"
*MEAS_COND_XG_VOLTAGE "40.0000000000"
*MEAS_COND_XG_WAVE_TYPE "Ka"
*MEAS_DATA_COUNT "3501.0000000000"
*MEAS_SCAN_AXIS_X "2θ/θ"
*MEAS_SCAN_AXIS_X_INTERNAL "TwoThetaTheta"
*MEAS_SCAN_END_TIME "08/19/20 18:22:25"
*MEAS_SCAN_MODE "CONTINUOUS"
*MEAS_SCAN_MONITOR "0"
*MEAS_SCAN_RESOLUTION_X "0.0002"
*MEAS_SCAN_SPEED "1.0"
*MEAS_SCAN_SPEED_UNIT "deg/min"
*MEAS_SCAN_START "20.0000000000"
*MEAS_SCAN_START_TIME "08/19/20 17:09:32"
*MEAS_SCAN_STEP "0.0200000000"
*MEAS_SCAN_STOP "90.0000000000"
*MEAS_SCAN_UNIT_X "deg"
*MEAS_SCAN_UNIT_Y "counts"
*RAS_HEADER_END
*RAS_INT_START
20.0000 9345.0000 1.0000
20.0200 9206.0000 1.0000
20.0400 9343.0000 1.0000
20.0600 9243.0000 1.0000
20.0800 9291.0000 1.0000
20.1000 9287.0000 1.0000
20.1200 9334.0000 1.0000
20.1400 9109.0000 1.0000
20.1600 9236.0000 1.0000
20.1800 9103.0000 1.0000
20.2000 9282.0000 1.0000
20.2200 9282.0000 1.0000
20.2400 9185.0000 1.0000
20.2600 9189.0000 1.0000
20.2800 9383.0000 1.0000
20.3000 9173.0000 1.0000
20.3200 9315.0000 1.0000
20.3400 9327.0000 1.0000
20.3600 9360.0000 1.0000
20.3800 9265.0000 1.0000
20.4000 9429.0000 1.0000
20.4200 9209.0000 1.0000
20.4400 9373.0000 1.0000
20.4600 9435.0000 1.0000
20.4800 9479.0000 1.0000
20.5000 9294.0000 1.0000
20.5200 9256.0000 1.0000
20.5400 9580.0000 1.0000
20.5600 9588.0000 1.0000
20.5800 9786.0000 1.0000
20.6000 9802.0000 1.0000
20.6200 10054.0000 1.0000
20.6400 10234.0000 1.0000
20.6600 10567.0000 1.0000
20.6800 11039.0000 1.0000
20.7000 10981.0000 1.0000
20.7200 11406.0000 1.0000
20.7400 11674.0000 1.0000
20.7600 12225.0000 1.0000
20.7800 13133.0000 1.0000
20.8000 14767.0000 1.0000
20.8200 17917.0000 1.0000
20.8400 22845.0000 1.0000
20.8600 25337.0000 1.0000
20.8800 26046.0000 1.0000
20.9000 24317.0000 1.0000
20.9200 20064.0000 1.0000
20.9400 16238.0000 1.0000
20.9600 13757.0000 1.0000
20.9800 11407.0000 1.0000
21.0000 10389.0000 1.0000
21.0200 9939.0000 1.0000
21.0400 9981.0000 1.0000
21.0600 9719.0000 1.0000
21.0800 9441.0000 1.0000
21.1000 9479.0000 1.0000
21.1200 9369.0000 1.0000
21.1400 9181.0000 1.0000
21.1600 9158.0000 1.0000
21.1800 9356.0000 1.0000
21.2000 9434.0000 1.0000
21.2200 9408.0000 1.0000
21.2400 9172.0000 1.0000
21.2600 9303.0000 1.0000
21.2800 9234.0000 1.0000
21.3000 9198.0000 1.0000
21.3200 9347.0000 1.0000
21.3400 9222.0000 1.0000
21.3600 9229.0000 1.0000
21.3800 9326.0000 1.0000
21.4000 9221.0000 1.0000
21.4200 9224.0000 1.0000
21.4400 9301.0000 1.0000
21.4600 9286.0000 1.0000
21.4800 9129.0000 1.0000
21.5000 9381.0000 1.0000
21.5200 9152.0000 1.0000
21.5400 9134.0000 1.0000
21.5600 9232.0000 1.0000
21.5800 9178.0000 1.0000
21.6000 9204.0000 1.0000
21.6200 9243.0000 1.0000
21.6400 9264.0000 1.0000
21.6600 9085.0000 1.0000
21.6800 9154.0000 1.0000
21.7000 9118.0000 1.0000
21.7200 9255.0000 1.0000
21.7400 9447.0000 1.0000
21.7600 9169.0000 1.0000
21.7800 9278.0000 1.0000
21.8000 9149.0000 1.0000
21.8200 9189.0000 1.0000
21.8400 9233.0000 1.0000
21.8600 9116.0000 1.0000
21.8800 8955.0000 1.0000
21.9000 9277.0000 1.0000
21.9200 9368.0000 1.0000
21.9400 9201.0000 1.0000
21.9600 9177.0000 1.0000
21.9800 9268.0000 1.0000
22.0000 9151.0000 1.0000
22.0200 9028.0000 1.0000
22.0400 9073.0000 1.0000
22.0600 9029.0000 1.0000
22.0800 9082.0000 1.0000
22.1000 9362.0000 1.0000
22.1200 9165.0000 1.0000
22.1400 9247.0000 1.0000
22.1600 8963.0000 1.0000
22.1800 9306.0000 1.0000
22.2000 9149.0000 1.0000
22.2200 9221.0000 1.0000
22.2400 9212.0000 1.0000
22.2600 9018.0000 1.0000
22.2800 9047.0000 1.0000
22.3000 9023.0000 1.0000
22.3200 9088.0000 1.0000
22.3400 9162.0000 1.0000
22.3600 9003.0000 1.0000
22.3800 9272.0000 1.0000
22.4000 9161.0000 1.0000
22.4200 9088.0000 1.0000
22.4400 9183.0000 1.0000
22.4600 9103.0000 1.0000
22.4800 9091.0000 1.0000
22.5000 9090.0000 1.0000
22.5200 9220.0000 1.0000
22.5400 9088.0000 1.0000
22.5600 9110.0000 1.0000
22.5800 9151.0000 1.0000
22.6000 9112.0000 1.0000
22.6200 8989.0000 1.0000
22.6400 9099.0000 1.0000
22.6600 9041.0000 1.0000
22.6800 9105.0000 1.0000
22.7000 9097.0000 1.0000
22.7200 8922.0000 1.0000
22.7400 8948.0000 1.0000
22.7600 8996.0000 1.0000
22.7800 9140.0000 1.0000
22.8000 9064.0000 1.0000
22.8200 9086.0000 1.0000
22.8400 8964.0000 1.0000
22.8600 9031.0000 1.0000
22.8800 9053.0000 1.0000
22.9000 9233.0000 1.0000
22.9200 9204.0000 1.0000
22.9400 8869.0000 1.0000
22.9600 9008.0000 1.0000
22.9800 9147.0000 1.0000
23.0000 9039.0000 1.0000
23.0200 9109.0000 1.0000
23.0400 9034.0000 1.0000
23.0600 9089.0000 1.0000
23.0800 9082.0000 1.0000
23.1000 9098.0000 1.0000
23.1200 8898.0000 1.0000
23.1400 8966.0000 1.0000
23.1600 9001.0000 1.0000
23.1800 9099.0000 1.0000
23.2000 9030.0000 1.0000
23.2200 9007.0000 1.0000
23.2400 9021.0000 1.0000
23.2600 9021.0000 1.0000
23.2800 9030.0000 1.0000
23.3000 8887.0000 1.0000
23.3200 9065.0000 1.0000
23.3400 9186.0000 1.0000
23.3600 8963.0000 1.0000
23.3800 9036.0000 1.0000
23.4000 9154.0000 1.0000
23.4200 9028.0000 1.0000
23.4400 9123.0000 1.0000
23.4600 8987.0000 1.0000
23.4800 9005.0000 1.0000
23.5000 9055.0000 1.0000
23.5200 9023.0000 1.0000
23.5400 9035.0000 1.0000
23.5600 9036.0000 1.0000
23.5800 9080.0000 1.0000
23.6000 8975.0000 1.0000
23.6200 9030.0000 1.0000
23.6400 9087.0000 1.0000
23.6600 9007.0000 1.0000
23.6800 8934.0000 1.0000
23.7000 9122.0000 1.0000
23.7200 9017.0000 1.0000
23.7400 9009.0000 1.0000
23.7600 9041.0000 1.0000
23.7800 8882.0000 1.0000
23.8000 9124.0000 1.0000
23.8200 9128.0000 1.0000
23.8400 9169.0000 1.0000
23.8600 9141.0000 1.0000
23.8800 9273.0000 1.0000
23.9000 9447.0000 1.0000
23.9200 9481.0000 1.0000
23.9400 9611.0000 1.0000
23.9600 9902.0000 1.0000
23.9800 9919.0000 1.0000
24.0000 10408.0000 1.0000
24.0200 10464.0000 1.0000
24.0400 11092.0000 1.0000
24.0600 11104.0000 1.0000
24.0800 11325.0000 1.0000
24.1000 11889.0000 1.0000
24.1200 12701.0000 1.0000
24.1400 13406.0000 1.0000
24.1600 13686.0000 1.0000
24.1800 13643.0000 1.0000
24.2000 12599.0000 1.0000
24.2200 12055.0000 1.0000
24.2400 11539.0000 1.0000
24.2600 10607.0000 1.0000
24.2800 10153.0000 1.0000
24.3000 9626.0000 1.0000
24.3200 9253.0000 1.0000
24.3400 9538.0000 1.0000
24.3600 9084.0000 1.0000
24.3800 9172.0000 1.0000
24.4000 9087.0000 1.0000
24.4200 9026.0000 1.0000
24.4400 8997.0000 1.0000
24.4600 8864.0000 1.0000
24.4800 8863.0000 1.0000
24.5000 8931.0000 1.0000
24.5200 8920.0000 1.0000
24.5400 8872.0000 1.0000
24.5600 8885.0000 1.0000
24.5800 8918.0000 1.0000
24.6000 8894.0000 1.0000
24.6200 8898.0000 1.0000
24.6400 9068.0000 1.0000
24.6600 8853.0000 1.0000
24.6800 8753.0000 1.0000
24.7000 8831.0000 1.0000
24.7200 8811.0000 1.0000
24.7400 9091.0000 1.0000
24.7600 8731.0000 1.0000
24.7800 8810.0000 1.0000
24.8000 8731.0000 1.0000
24.8200 8784.0000 1.0000
24.8400 8863.0000 1.0000
24.8600 8861.0000 1.0000
24.8800 8983.0000 1.0000
24.9000 8875.0000 1.0000
24.9200 8571.0000 1.0000
24.9400 8851.0000 1.0000
24.9600 8975.0000 1.0000
24.9800 8608.0000 1.0000
25.0000 8679.0000 1.0000
25.0200 8699.0000 1.0000
25.0400 8824.0000 1.0000
25.0600 8822.0000 1.0000
25.0800 8786.0000 1.0000
25.1000 8685.0000 1.0000
25.1200 8793.0000 1.0000
25.1400 8779.0000 1.0000
25.1600 8644.0000 1.0000
25.1800 8695.0000 1.0000
25.2000 8882.0000 1.0000
25.2200 8867.0000 1.0000
25.2400 8867.0000 1.0000
25.2600 8984.0000 1.0000
25.2800 8921.0000 1.0000
25.3000 8762.0000 1.0000
25.3200 8989.0000 1.0000
25.3400 8967.0000 1.0000
25.3600 8923.0000 1.0000
25.3800 8967.0000 1.0000
25.4000 8994.0000 1.0000
25.4200 9080.0000 1.0000
25.4400 9049.0000 1.0000
25.4600 9211.0000 1.0000
25.4800 9405.0000 1.0000
25.5000 9631.0000 1.0000
25.5200 9653.0000 1.0000
25.5400 9851.0000 1.0000
25.5600 10123.0000 1.0000
25.5800 10285.0000 1.0000
25.6000 10272.0000 1.0000
25.6200 9804.0000 1.0000
25.6400 9802.0000 1.0000
25.6600 9642.0000 1.0000
25.6800 9464.0000 1.0000
25.7000 9435.0000 1.0000
25.7200 9244.0000 1.0000
25.7400 9262.0000 1.0000
25.7600 9187.0000 1.0000
25.7800 9090.0000 1.0000
25.8000 9049.0000 1.0000
25.8200 9258.0000 1.0000
25.8400 9022.0000 1.0000
25.8600 9057.0000 1.0000
25.8800 9190.0000 1.0000
25.9000 9080.0000 1.0000
25.9200 9012.0000 1.0000
25.9400 8954.0000 1.0000
25.9600 9004.0000 1.0000
25.9800 9089.0000 1.0000
26.0000 8907.0000 1.0000
26.0200 9020.0000 1.0000
26.0400 9251.0000 1.0000
26.0600 9011.0000 1.0000
26.0800 9170.0000 1.0000
26.1000 8865.0000 1.0000
26.1200 9012.0000 1.0000
26.1400 8934.0000 1.0000
26.1600 9085.0000 1.0000
26.1800 9160.0000 1.0000
26.2000 9194.0000 1.0000
26.2200 9277.0000 1.0000
26.2400 9295.0000 1.0000
26.2600 9422.0000 1.0000
26.2800 9525.0000 1.0000
26.3000 9793.0000 1.0000
26.3200 10028.0000 1.0000
26.3400 10212.0000 1.0000
26.3600 10804.0000 1.0000
26.3800 11399.0000 1.0000
26.4000 12259.0000 1.0000
26.4200 13161.0000 1.0000
26.4400 14199.0000 1.0000
26.4600 15563.0000 1.0000
26.4800 17937.0000 1.0000
26.5000 21346.0000 1.0000
26.5200 24012.0000 1.0000
26.5400 30863.0000 1.0000
26.5600 34866.0000 1.0000
26.5800 41636.0000 1.0000
26.6000 58964.0000 1.0000
26.6200 78705.0000 1.0000
26.6400 97868.0000 1.0000
26.6600 99759.0000 1.0000
26.6800 79792.0000 1.0000
26.7000 63130.0000 1.0000
26.7200 56456.0000 1.0000
26.7400 42496.0000 1.0000
26.7600 26444.0000 1.0000
26.7800 17792.0000 1.0000
26.8000 14551.0000 1.0000
26.8200 13139.0000 1.0000
26.8400 12156.0000 1.0000
26.8600 11042.0000 1.0000
26.8800 10574.0000 1.0000
26.9000 10029.0000 1.0000
26.9200 9637.0000 1.0000
26.9400 9191.0000 1.0000
26.9600 9205.0000 1.0000
26.9800 9078.0000 1.0000
27.0000 8960.0000 1.0000
27.0200 9189.0000 1.0000
27.0400 8945.0000 1.0000
27.0600 8958.0000 1.0000
27.0800 8992.0000 1.0000
27.1000 8920.0000 1.0000
27.1200 8981.0000 1.0000
27.1400 8869.0000 1.0000
27.1600 8895.0000 1.0000
27.1800 8800.0000 1.0000
27.2000 8719.0000 1.0000
27.2200 8752.0000 1.0000
27.2400 8933.0000 1.0000
27.2600 8851.0000 1.0000
27.2800 8784.0000 1.0000
27.3000 8886.0000 1.0000
27.3200 8697.0000 1.0000
27.3400 8723.0000 1.0000
27.3600 8614.0000 1.0000
27.3800 8648.0000 1.0000
27.4000 8767.0000 1.0000
27.4200 8720.0000 1.0000
27.4400 8669.0000 1.0000
27.4600 8643.0000 1.0000
27.4800 8828.0000 1.0000
27.5000 8713.0000 1.0000
27.5200 8620.0000 1.0000
27.5400 8605.0000 1.0000
27.5600 8724.0000 1.0000
27.5800 8622.0000 1.0000
27.6000 8568.0000 1.0000
27.6200 8613.0000 1.0000
27.6400 8671.0000 1.0000
27.6600 8716.0000 1.0000
27.6800 8508.0000 1.0000
27.7000 8696.0000 1.0000
27.7200 8619.0000 1.0000
27.7400 8724.0000 1.0000
27.7600 8579.0000 1.0000
27.7800 8710.0000 1.0000
27.8000 8672.0000 1.0000
27.8200 8611.0000 1.0000
27.8400 8549.0000 1.0000
27.8600 8580.0000 1.0000
27.8800 8563.0000 1.0000
27.9000 8501.0000 1.0000
27.9200 8712.0000 1.0000
27.9400 8610.0000 1.0000
27.9600 8636.0000 1.0000
27.9800 8567.0000 1.0000
28.0000 8677.0000 1.0000
28.0200 8651.0000 1.0000
28.0400 8498.0000 1.0000
28.0600 8502.0000 1.0000
28.0800 8602.0000 1.0000
28.1000 8417.0000 1.0000
28.1200 8512.0000 1.0000
28.1400 8467.0000 1.0000
28.1600 8673.0000 1.0000
28.1800 8372.0000 1.0000
28.2000 8635.0000 1.0000
28.2200 8594.0000 1.0000
28.2400 8461.0000 1.0000
28.2600 8569.0000 1.0000
28.2800 8513.0000 1.0000
28.3000 8617.0000 1.0000
28.3200 8522.0000 1.0000
28.3400 8419.0000 1.0000
28.3600 8488.0000 1.0000
28.3800 8488.0000 1.0000
28.4000 8442.0000 1.0000
28.4200 8331.0000 1.0000
28.4400 8403.0000 1.0000
28.4600 8451.0000 1.0000
28.4800 8499.0000 1.0000
28.5000 8437.0000 1.0000
28.5200 8481.0000 1.0000
28.5400 8546.0000 1.0000
28.5600 8405.0000 1.0000
28.5800 8452.0000 1.0000
28.6000 8260.0000 1.0000
28.6200 8416.0000 1.0000
28.6400 8326.0000 1.0000
28.6600 8364.0000 1.0000
28.6800 8579.0000 1.0000
28.7000 8378.0000 1.0000
28.7200 8416.0000 1.0000
28.7400 8518.0000 1.0000
28.7600 8469.0000 1.0000
28.7800 8316.0000 1.0000
28.8000 8292.0000 1.0000
28.8200 8387.0000 1.0000
28.8400 8532.0000 1.0000
28.8600 8442.0000 1.0000
28.8800 8480.0000 1.0000
28.9000 8530.0000 1.0000
28.9200 8401.0000 1.0000
28.9400 8309.0000 1.0000
28.9600 8498.0000 1.0000
28.9800 8360.0000 1.0000
29.0000 8201.0000 1.0000
29.0200 8293.0000 1.0000
29.0400 8364.0000 1.0000
29.0600 8368.0000 1.0000
29.0800 8327.0000 1.0000
29.1000 8314.0000 1.0000
29.1200 8383.0000 1.0000
29.1400 8471.0000 1.0000
29.1600 8352.0000 1.0000
29.1800 8226.0000 1.0000
29.2000 8148.0000 1.0000
29.2200 8277.0000 1.0000
29.2400 8404.0000 1.0000
29.2600 8429.0000 1.0000
29.2800 8278.0000 1.0000
29.3000 8225.0000 1.0000
29.3200 8261.0000 1.0000
29.3400 8155.0000 1.0000
29.3600 8301.0000 1.0000
29.3800 8322.0000 1.0000
29.4000 8161.0000 1.0000
29.4200 8185.0000 1.0000
29.4400 8333.0000 1.0000
29.4600 8236.0000 1.0000
29.4800 8213.0000 1.0000
29.5000 8258.0000 1.0000
29.5200 8213.0000 1.0000
29.5400 8130.0000 1.0000
29.5600 8328.0000 1.0000
29.5800 8452.0000 1.0000
29.6000 8129.0000 1.0000
29.6200 8124.0000 1.0000
29.6400 8319.0000 1.0000
29.6600 8370.0000 1.0000
29.6800 8267.0000 1.0000
29.7000 8265.0000 1.0000
29.7200 8295.0000 1.0000
29.7400 8382.0000 1.0000
29.7600 8235.0000 1.0000
29.7800 8257.0000 1.0000
29.8000 8380.0000 1.0000
29.8200 8454.0000 1.0000
29.8400 8421.0000 1.0000
29.8600 8411.0000 1.0000
29.8800 8386.0000 1.0000
29.9000 8320.0000 1.0000
29.9200 8428.0000 1.0000
29.9400 8404.0000 1.0000
29.9600 8235.0000 1.0000
29.9800 8327.0000 1.0000
30.0000 8489.0000 1.0000
30.0200 8558.0000 1.0000
30.0400 8575.0000 1.0000
30.0600 8716.0000 1.0000
30.0800 8854.0000 1.0000
30.1000 9091.0000 1.0000
30.1200 9096.0000 1.0000
30.1400 9226.0000 1.0000
30.1600 9087.0000 1.0000
30.1800 9216.0000 1.0000
30.2000 8971.0000 1.0000
30.2200 8965.0000 1.0000
30.2400 8886.0000 1.0000
30.2600 8640.0000 1.0000
30.2800 8453.0000 1.0000
30.3000 8521.0000 1.0000
30.3200 8420.0000 1.0000
30.3400 8440.0000 1.0000
30.3600 8399.0000 1.0000
30.3800 8452.0000 1.0000
30.4000 8468.0000 1.0000
30.4200 8307.0000 1.0000
30.4400 8270.0000 1.0000
30.4600 8287.0000 1.0000
30.4800 8229.0000 1.0000
30.5000 8118.0000 1.0000
30.5200 8257.0000 1.0000
30.5400 8149.0000 1.0000
30.5600 8233.0000 1.0000
30.5800 8185.0000 1.0000
30.6000 8265.0000 1.0000
30.6200 8294.0000 1.0000
30.6400 8225.0000 1.0000
30.6600 8101.0000 1.0000
30.6800 8027.0000 1.0000
30.7000 8172.0000 1.0000
30.7200 8197.0000 1.0000
30.7400 8090.0000 1.0000
30.7600 8039.0000 1.0000
30.7800 8329.0000 1.0000
30.8000 8248.0000 1.0000
30.8200 8112.0000 1.0000
30.8400 8160.0000 1.0000
30.8600 8132.0000 1.0000
30.8800 8201.0000 1.0000
30.9000 8083.0000 1.0000
30.9200 8088.0000 1.0000
30.9400 8134.0000 1.0000
30.9600 8087.0000 1.0000
30.9800 8275.0000 1.0000
31.0000 7997.0000 1.0000
31.0200 8107.0000 1.0000
31.0400 8292.0000 1.0000
31.0600 8142.0000 1.0000
31.0800 8086.0000 1.0000
31.1000 8080.0000 1.0000
31.1200 8102.0000 1.0000
31.1400 8138.0000 1.0000
31.1600 8258.0000 1.0000
31.1800 8190.0000 1.0000
31.2000 8299.0000 1.0000
31.2200 8112.0000 1.0000
31.2400 8015.0000 1.0000
31.2600 8240.0000 1.0000
31.2800 8146.0000 1.0000
31.3000 8255.0000 1.0000
31.3200 7962.0000 1.0000
31.3400 8131.0000 1.0000
31.3600 8102.0000 1.0000
31.3800 8034.0000 1.0000
31.4000 8031.0000 1.0000
31.4200 8223.0000 1.0000
31.4400 8002.0000 1.0000
31.4600 8012.0000 1.0000
31.4800 8068.0000 1.0000
31.5000 8114.0000 1.0000
31.5200 8133.0000 1.0000
31.5400 8107.0000 1.0000
31.5600 8022.0000 1.0000
31.5800 8018.0000 1.0000
31.6000 8047.0000 1.0000
31.6200 7968.0000 1.0000
31.6400 8067.0000 1.0000
31.6600 8253.0000 1.0000
31.6800 8138.0000 1.0000
31.7000 8199.0000 1.0000
31.7200 7995.0000 1.0000
31.7400 8159.0000 1.0000
31.7600 8151.0000 1.0000
31.7800 8065.0000 1.0000
31.8000 8059.0000 1.0000
31.8200 7898.0000 1.0000
31.8400 8266.0000 1.0000
31.8600 7995.0000 1.0000
31.8800 8075.0000 1.0000
31.9000 8066.0000 1.0000
31.9200 8105.0000 1.0000
31.9400 8090.0000 1.0000
31.9600 8203.0000 1.0000
31.9800 8111.0000 1.0000
32.0000 8292.0000 1.0000
32.0200 8300.0000 1.0000
32.0400 8269.0000 1.0000
32.0600 8138.0000 1.0000
32.0800 8170.0000 1.0000
32.1000 8134.0000 1.0000
32.1200 8215.0000 1.0000
32.1400 8264.0000 1.0000
32.1600 8266.0000 1.0000
32.1800 8237.0000 1.0000
32.2000 8225.0000 1.0000
32.2200 8122.0000 1.0000
32.2400 8077.0000 1.0000
32.2600 8108.0000 1.0000
32.2800 8048.0000 1.0000
32.3000 8259.0000 1.0000
32.3200 8198.0000 1.0000
32.3400 8096.0000 1.0000
32.3600 8031.0000 1.0000
32.3800 8067.0000 1.0000
32.4000 7887.0000 1.0000
32.4200 7991.0000 1.0000
32.4400 7824.0000 1.0000
32.4600 7996.0000 1.0000
32.4800 8018.0000 1.0000
32.5000 8034.0000 1.0000
32.5200 8061.0000 1.0000
32.5400 8148.0000 1.0000
32.5600 8260.0000 1.0000
32.5800 8047.0000 1.0000
32.6000 7994.0000 1.0000
32.6200 8082.0000 1.0000
32.6400 8121.0000 1.0000
32.6600 8046.0000 1.0000
32.6800 8300.0000 1.0000
32.7000 8169.0000 1.0000
32.7200 8162.0000 1.0000
32.7400 8245.0000 1.0000
32.7600 8234.0000 1.0000
32.7800 8302.0000 1.0000
32.8000 8281.0000 1.0000
32.8200 8322.0000 1.0000
32.8400 8504.0000 1.0000
32.8600 8622.0000 1.0000
32.8800 8781.0000 1.0000
32.9000 8834.0000 1.0000
32.9200 9191.0000 1.0000
32.9400 9307.0000 1.0000
32.9600 9486.0000 1.0000
32.9800 9731.0000 1.0000
33.0000 10194.0000 1.0000
33.0200 10637.0000 1.0000
33.0400 11354.0000 1.0000
33.0600 12276.0000 1.0000
33.0800 13649.0000 1.0000
33.1000 15416.0000 1.0000
33.1200 17507.0000 1.0000
33.1400 20565.0000 1.0000
33.1600 22477.0000 1.0000
33.1800 23336.0000 1.0000
33.2000 21466.0000 1.0000
33.2200 19577.0000 1.0000
33.2400 18144.0000 1.0000
33.2600 16814.0000 1.0000
33.2800 15084.0000 1.0000
33.3000 13022.0000 1.0000
33.3200 11436.0000 1.0000
33.3400 10619.0000 1.0000
33.3600 9762.0000 1.0000
33.3800 9316.0000 1.0000
33.4000 9034.0000 1.0000
33.4200 8866.0000 1.0000
33.4400 8676.0000 1.0000
33.4600 8443.0000 1.0000
33.4800 8512.0000 1.0000
33.5000 8350.0000 1.0000
33.5200 8380.0000 1.0000
33.5400 8347.0000 1.0000
33.5600 8358.0000 1.0000
33.5800 8136.0000 1.0000
33.6000 8069.0000 1.0000
33.6200 8102.0000 1.0000
33.6400 8049.0000 1.0000
33.6600 8068.0000 1.0000
33.6800 7950.0000 1.0000
33.7000 8111.0000 1.0000
33.7200 8113.0000 1.0000
33.7400 8121.0000 1.0000
33.7600 8060.0000 1.0000
33.7800 7972.0000 1.0000
33.8000 8040.0000 1.0000
33.8200 7889.0000 1.0000
33.8400 7958.0000 1.0000
33.8600 7905.0000 1.0000
33.8800 7999.0000 1.0000
33.9000 8034.0000 1.0000
33.9200 7878.0000 1.0000
33.9400 7916.0000 1.0000
33.9600 8046.0000 1.0000
33.9800 8044.0000 1.0000
34.0000 7993.0000 1.0000
34.0200 7870.0000 1.0000
34.0400 7945.0000 1.0000
34.0600 7915.0000 1.0000
34.0800 7948.0000 1.0000
34.1000 7948.0000 1.0000
34.1200 7954.0000 1.0000
34.1400 7901.0000 1.0000
34.1600 7991.0000 1.0000
34.1800 7914.0000 1.0000
34.2000 7909.0000 1.0000
34.2200 8145.0000 1.0000
34.2400 8077.0000 1.0000
34.2600 7995.0000 1.0000
34.2800 8016.0000 1.0000
34.3000 7887.0000 1.0000
34.3200 7967.0000 1.0000
34.3400 8066.0000 1.0000
34.3600 7977.0000 1.0000
34.3800 7978.0000 1.0000
34.4000 7890.0000 1.0000
34.4200 7910.0000 1.0000
34.4400 7719.0000 1.0000
34.4600 8016.0000 1.0000
34.4800 7891.0000 1.0000
34.5000 7884.0000 1.0000
34.5200 7937.0000 1.0000
34.5400 7918.0000 1.0000
34.5600 7928.0000 1.0000
34.5800 7923.0000 1.0000
34.6000 7902.0000 1.0000
34.6200 7980.0000 1.0000
34.6400 7934.0000 1.0000
34.6600 7950.0000 1.0000
34.6800 7945.0000 1.0000
34.7000 8114.0000 1.0000
34.7200 8103.0000 1.0000
34.7400 8148.0000 1.0000
34.7600 7956.0000 1.0000
34.7800 8018.0000 1.0000
34.8000 7942.0000 1.0000
34.8200 7955.0000 1.0000
34.8400 8067.0000 1.0000
34.8600 8023.0000 1.0000
34.8800 8093.0000 1.0000
34.9000 7959.0000 1.0000
34.9200 8196.0000 1.0000
34.9400 8177.0000 1.0000
34.9600 8278.0000 1.0000
34.9800 8371.0000 1.0000
35.0000 8443.0000 1.0000
35.0200 8484.0000 1.0000
35.0400 8670.0000 1.0000
35.0600 8909.0000 1.0000
35.0800 9058.0000 1.0000
35.1000 9497.0000 1.0000
35.1200 9734.0000 1.0000
35.1400 10281.0000 1.0000
35.1600 10397.0000 1.0000
35.1800 10279.0000 1.0000
35.2000 9833.0000 1.0000
35.2200 9611.0000 1.0000
35.2400 9575.0000 1.0000
35.2600 9433.0000 1.0000
35.2800 9431.0000 1.0000
35.3000 9071.0000 1.0000
35.3200 9014.0000 1.0000
35.3400 9121.0000 1.0000
35.3600 9282.0000 1.0000
35.3800 9413.0000 1.0000
35.4000 10032.0000 1.0000
35.4200 10386.0000 1.0000
35.4400 11095.0000 1.0000
35.4600 11905.0000 1.0000
35.4800 12582.0000 1.0000
35.5000 13159.0000 1.0000
35.5200 13406.0000 1.0000
35.5400 13785.0000 1.0000
35.5600 14551.0000 1.0000
35.5800 15802.0000 1.0000
35.6000 17451.0000 1.0000
35.6200 19162.0000 1.0000
35.6400 19938.0000 1.0000
35.6600 19168.0000 1.0000
35.6800 17306.0000 1.0000
35.7000 15817.0000 1.0000
35.7200 15261.0000 1.0000
35.7400 14354.0000 1.0000
35.7600 13057.0000 1.0000
35.7800 11503.0000 1.0000
35.8000 10264.0000 1.0000
35.8200 9603.0000 1.0000
35.8400 9067.0000 1.0000
35.8600 8756.0000 1.0000
35.8800 8565.0000 1.0000
35.9000 8477.0000 1.0000
35.9200 8420.0000 1.0000
35.9400 8289.0000 1.0000
35.9600 8336.0000 1.0000
35.9800 8256.0000 1.0000
36.0000 8164.0000 1.0000
36.0200 8013.0000 1.0000
36.0400 8059.0000 1.0000
36.0600 8017.0000 1.0000
36.0800 8087.0000 1.0000
36.1000 7913.0000 1.0000
36.1200 7842.0000 1.0000
36.1400 7914.0000 1.0000
36.1600 7966.0000 1.0000
36.1800 7997.0000 1.0000
36.2000 7945.0000 1.0000
36.2200 7868.0000 1.0000
36.2400 7998.0000 1.0000
36.2600 8156.0000 1.0000
36.2800 8061.0000 1.0000
36.3000 8062.0000 1.0000
36.3200 8078.0000 1.0000
36.3400 8139.0000 1.0000
36.3600 8245.0000 1.0000
36.3800 8181.0000 1.0000
36.4000 8329.0000 1.0000
36.4200 8456.0000 1.0000
36.4400 8495.0000 1.0000
36.4600 8797.0000 1.0000
36.4800 9264.0000 1.0000
36.5000 10397.0000 1.0000
36.5200 12709.0000 1.0000
36.5400 15715.0000 1.0000
36.5600 16070.0000 1.0000
36.5800 13592.0000 1.0000
36.6000 11583.0000 1.0000
36.6200 11602.0000 1.0000
36.6400 12349.0000 1.0000
36.6600 11592.0000 1.0000
36.6800 9971.0000 1.0000
36.7000 9029.0000 1.0000
36.7200 8571.0000 1.0000
36.7400 8105.0000 1.0000
36.7600 7964.0000 1.0000
36.7800 7973.0000 1.0000
36.8000 8037.0000 1.0000
36.8200 7946.0000 1.0000
36.8400 7887.0000 1.0000
36.8600 7858.0000 1.0000
36.8800 7839.0000 1.0000
36.9000 7846.0000 1.0000
36.9200 7831.0000 1.0000
36.9400 7782.0000 1.0000
36.9600 7746.0000 1.0000
36.9800 7900.0000 1.0000
37.0000 7907.0000 1.0000
37.0200 7811.0000 1.0000
37.0400 7814.0000 1.0000
37.0600 7834.0000 1.0000
37.0800 7841.0000 1.0000
37.1000 7851.0000 1.0000
37.1200 7921.0000 1.0000
37.1400 7901.0000 1.0000
37.1600 8012.0000 1.0000
37.1800 8163.0000 1.0000
37.2000 7881.0000 1.0000
37.2200 7822.0000 1.0000
37.2400 7951.0000 1.0000
37.2600 7849.0000 1.0000
37.2800 7812.0000 1.0000
37.3000 7822.0000 1.0000
37.3200 7811.0000 1.0000
37.3400 7842.0000 1.0000
37.3600 7932.0000 1.0000
37.3800 7693.0000 1.0000
37.4000 7727.0000 1.0000
37.4200 7631.0000 1.0000
37.4400 7767.0000 1.0000
37.4600 7731.0000 1.0000
37.4800 7891.0000 1.0000
37.5000 7880.0000 1.0000
37.5200 7708.0000 1.0000
37.5400 7792.0000 1.0000
37.5600 7820.0000 1.0000
37.5800 7758.0000 1.0000
37.6000 8002.0000 1.0000
37.6200 7924.0000 1.0000
37.6400 7946.0000 1.0000
37.6600 7835.0000 1.0000
37.6800 8192.0000 1.0000
37.7000 8177.0000 1.0000
37.7200 8209.0000 1.0000
37.7400 8377.0000 1.0000
37.7600 8686.0000 1.0000
37.7800 8734.0000 1.0000
37.8000 8702.0000 1.0000
37.8200 8402.0000 1.0000
37.8400 8508.0000 1.0000
37.8600 8226.0000 1.0000
37.8800 8264.0000 1.0000
37.9000 8138.0000 1.0000
37.9200 8005.0000 1.0000
37.9400 7884.0000 1.0000
37.9600 7977.0000 1.0000
37.9800 7701.0000 1.0000
38.0000 7856.0000 1.0000
38.0200 7885.0000 1.0000
38.0400 7737.0000 1.0000
38.0600 7649.0000 1.0000
38.0800 7835.0000 1.0000
38.1000 7805.0000 1.0000
38.1200 7699.0000 1.0000
38.1400 7818.0000 1.0000
38.1600 7900.0000 1.0000
38.1800 7733.0000 1.0000
38.2000 7971.0000 1.0000
38.2200 7896.0000 1.0000
38.2400 7730.0000 1.0000
38.2600 7771.0000 1.0000
38.2800 7673.0000 1.0000
38.3000 7797.0000 1.0000
38.3200 7755.0000 1.0000
38.3400 7800.0000 1.0000
38.3600 7782.0000 1.0000
38.3800 7893.0000 1.0000
38.4000 7672.0000 1.0000
38.4200 7775.0000 1.0000
38.4400 7589.0000 1.0000
38.4600 7746.0000 1.0000
38.4800 7564.0000 1.0000
38.5000 7581.0000 1.0000
38.5200 7628.0000 1.0000
38.5400 7752.0000 1.0000
38.5600 7742.0000 1.0000
38.5800 7742.0000 1.0000
38.6000 7760.0000 1.0000
38.6200 7612.0000 1.0000
38.6400 7820.0000 1.0000
38.6600 7789.0000 1.0000
38.6800 7671.0000 1.0000
38.7000 7679.0000 1.0000
38.7200 7801.0000 1.0000
38.7400 7607.0000 1.0000
38.7600 7732.0000 1.0000
38.7800 7571.0000 1.0000
38.8000 7606.0000 1.0000
38.8200 7663.0000 1.0000
38.8400 7743.0000 1.0000
38.8600 7596.0000 1.0000
38.8800 7774.0000 1.0000
38.9000 7733.0000 1.0000
38.9200 7705.0000 1.0000
38.9400 7625.0000 1.0000
38.9600 7592.0000 1.0000
38.9800 7856.0000 1.0000
39.0000 7783.0000 1.0000
39.0200 7782.0000 1.0000
39.0400 7683.0000 1.0000
39.0600 7632.0000 1.0000
39.0800 7776.0000 1.0000
39.1000 7665.0000 1.0000
39.1200 7616.0000 1.0000
39.1400 7538.0000 1.0000
39.1600 7776.0000 1.0000
39.1800 7790.0000 1.0000
39.2000 7948.0000 1.0000
39.2200 7889.0000 1.0000
39.2400 7978.0000 1.0000
39.2600 8300.0000 1.0000
39.2800 8217.0000 1.0000
39.3000 8177.0000 1.0000
39.3200 8235.0000 1.0000
39.3400 8284.0000 1.0000
39.3600 8354.0000 1.0000
39.3800 8737.0000 1.0000
39.4000 9080.0000 1.0000
39.4200 9714.0000 1.0000
39.4400 10863.0000 1.0000
39.4600 12637.0000 1.0000
39.4800 13961.0000 1.0000
39.5000 13101.0000 1.0000
39.5200 10902.0000 1.0000
39.5400 10094.0000 1.0000
39.5600 10115.0000 1.0000
39.5800 10827.0000 1.0000
39.6000 10311.0000 1.0000
39.6200 9147.0000 1.0000
39.6400 8279.0000 1.0000
39.6600 8178.0000 1.0000
39.6800 8094.0000 1.0000
39.7000 7875.0000 1.0000
39.7200 7812.0000 1.0000
39.7400 7775.0000 1.0000
39.7600 7892.0000 1.0000
39.7800 7714.0000 1.0000
39.8000 7736.0000 1.0000
39.8200 7517.0000 1.0000
39.8400 7578.0000 1.0000
39.8600 7763.0000 1.0000
39.8800 7704.0000 1.0000
39.9000 7861.0000 1.0000
39.9200 7645.0000 1.0000
39.9400 7748.0000 1.0000
39.9600 7638.0000 1.0000
39.9800 7725.0000 1.0000
40.0000 7603.0000 1.0000
40.0200 7695.0000 1.0000
40.0400 7820.0000 1.0000
40.0600 7919.0000 1.0000
40.0800 7837.0000 1.0000
40.1000 7754.0000 1.0000
40.1200 7954.0000 1.0000
40.1400 7910.0000 1.0000
40.1600 8001.0000 1.0000
40.1800 8086.0000 1.0000
40.2000 8357.0000 1.0000
40.2200 8433.0000 1.0000
40.2400 8794.0000 1.0000
40.2600 9783.0000 1.0000
40.2800 11824.0000 1.0000
40.3000 12736.0000 1.0000
40.3200 11391.0000 1.0000
40.3400 9606.0000 1.0000
40.3600 9314.0000 1.0000
40.3800 9777.0000 1.0000
40.4000 10303.0000 1.0000
40.4200 9685.0000 1.0000
40.4400 8840.0000 1.0000
40.4600 8259.0000 1.0000
40.4800 8038.0000 1.0000
40.5000 7908.0000 1.0000
40.5200 7864.0000 1.0000
40.5400 7639.0000 1.0000
40.5600 7892.0000 1.0000
40.5800 7939.0000 1.0000
40.6000 7865.0000 1.0000
40.6200 7854.0000 1.0000
40.6400 8012.0000 1.0000
40.6600 7954.0000 1.0000
40.6800 7896.0000 1.0000
40.7000 8053.0000 1.0000
40.7200 8149.0000 1.0000
40.7400 8237.0000 1.0000
40.7600 8424.0000 1.0000
40.7800 8861.0000 1.0000
40.8000 9092.0000 1.0000
40.8200 9620.0000 1.0000
40.8400 10298.0000 1.0000
40.8600 10764.0000 1.0000
40.8800 11008.0000 1.0000
40.9000 10391.0000 1.0000
40.9200 10031.0000 1.0000
40.9400 9679.0000 1.0000
40.9600 9657.0000 1.0000
40.9800 9657.0000 1.0000
41.0000 9352.0000 1.0000
41.0200 8861.0000 1.0000
41.0400 8284.0000 1.0000
41.0600 8098.0000 1.0000
41.0800 8151.0000 1.0000
41.1000 7810.0000 1.0000
41.1200 7819.0000 1.0000
41.1400 7687.0000 1.0000
41.1600 7740.0000 1.0000
41.1800 7781.0000 1.0000
41.2000 7661.0000 1.0000
41.2200 7819.0000 1.0000
41.2400 7767.0000 1.0000
41.2600 7732.0000 1.0000
41.2800 7705.0000 1.0000
41.3000 7607.0000 1.0000
41.3200 7625.0000 1.0000
41.3400 7655.0000 1.0000
41.3600 7813.0000 1.0000
41.3800 7620.0000 1.0000
41.4000 7800.0000 1.0000
41.4200 7477.0000 1.0000
41.4400 7711.0000 1.0000
41.4600 7685.0000 1.0000
41.4800 7630.0000 1.0000
41.5000 7807.0000 1.0000
41.5200 7482.0000 1.0000
41.5400 7562.0000 1.0000
41.5600 7638.0000 1.0000
41.5800 7754.0000 1.0000
41.6000 7696.0000 1.0000
41.6200 7669.0000 1.0000
41.6400 7720.0000 1.0000
41.6600 7596.0000 1.0000
41.6800 7787.0000 1.0000
41.7000 7592.0000 1.0000
41.7200 7588.0000 1.0000
41.7400 7550.0000 1.0000
41.7600 7676.0000 1.0000
41.7800 7542.0000 1.0000
41.8000 7601.0000 1.0000
41.8200 7676.0000 1.0000
41.8400 7668.0000 1.0000
41.8600 7689.0000 1.0000
41.8800 7757.0000 1.0000
41.9000 7825.0000 1.0000
41.9200 7630.0000 1.0000
41.9400 7580.0000 1.0000
41.9600 7746.0000 1.0000
41.9800 7635.0000 1.0000
42.0000 7467.0000 1.0000
42.0200 7648.0000 1.0000
42.0400 7608.0000 1.0000
42.0600 7559.0000 1.0000
42.0800 7732.0000 1.0000
42.1000 7599.0000 1.0000
42.1200 7682.0000 1.0000
42.1400 7675.0000 1.0000
42.1600 7647.0000 1.0000
42.1800 7656.0000 1.0000
42.2000 7673.0000 1.0000
42.2200 7718.0000 1.0000
42.2400 7691.0000 1.0000
42.2600 7889.0000 1.0000
42.2800 7881.0000 1.0000
42.3000 7960.0000 1.0000
42.3200 7975.0000 1.0000
42.3400 8119.0000 1.0000
42.3600 8419.0000 1.0000
42.3800 8618.0000 1.0000
42.4000 9358.0000 1.0000
42.4200 10698.0000 1.0000
42.4400 12266.0000 1.0000
42.4600 13350.0000 1.0000
42.4800 13114.0000 1.0000
42.5000 11706.0000 1.0000
42.5200 10335.0000 1.0000
42.5400 10158.0000 1.0000
42.5600 10746.0000 1.0000
42.5800 10621.0000 1.0000
42.6000 10197.0000 1.0000
42.6200 9055.0000 1.0000
42.6400 8251.0000 1.0000
42.6600 7989.0000 1.0000
42.6800 7841.0000 1.0000
42.7000 7845.0000 1.0000
42.7200 7610.0000 1.0000
42.7400 7839.0000 1.0000
42.7600 7774.0000 1.0000
42.7800 7795.0000 1.0000
42.8000 7586.0000 1.0000
42.8200 7708.0000 1.0000
42.8400 7666.0000 1.0000
42.8600 7591.0000 1.0000
42.8800 7664.0000 1.0000
42.9000 7534.0000 1.0000
42.9200 7842.0000 1.0000
42.9400 7760.0000 1.0000
42.9600 7624.0000 1.0000
42.9800 7559.0000 1.0000
43.0000 7810.0000 1.0000
43.0200 7835.0000 1.0000
43.0400 8037.0000 1.0000
43.0600 8063.0000 1.0000
43.0800 8239.0000 1.0000
43.1000 8249.0000 1.0000
43.1200 8449.0000 1.0000
43.1400 8561.0000 1.0000
43.1600 8492.0000 1.0000
43.1800 8550.0000 1.0000
43.2000 8543.0000 1.0000
43.2200 8395.0000 1.0000
43.2400 8577.0000 1.0000
43.2600 8805.0000 1.0000
43.2800 9069.0000 1.0000
43.3000 9397.0000 1.0000
43.3200 9751.0000 1.0000
43.3400 10239.0000 1.0000
43.3600 10229.0000 1.0000
43.3800 9891.0000 1.0000
43.4000 9572.0000 1.0000
43.4200 9321.0000 1.0000
43.4400 9116.0000 1.0000
43.4600 9248.0000 1.0000
43.4800 9231.0000 1.0000
43.5000 8994.0000 1.0000
43.5200 8552.0000 1.0000
43.5400 8453.0000 1.0000
43.5600 8104.0000 1.0000
43.5800 8006.0000 1.0000
43.6000 7890.0000 1.0000
43.6200 7886.0000 1.0000
43.6400 7969.0000 1.0000
43.6600 7881.0000 1.0000
43.6800 7629.0000 1.0000
43.7000 7689.0000 1.0000
43.7200 7614.0000 1.0000
43.7400 7633.0000 1.0000
43.7600 7626.0000 1.0000
43.7800 7579.0000 1.0000
43.8000 7632.0000 1.0000
43.8200 7726.0000 1.0000
43.8400 7598.0000 1.0000
43.8600 7606.0000 1.0000
43.8800 7451.0000 1.0000
43.9000 7560.0000 1.0000
43.9200 7673.0000 1.0000
43.9400 7656.0000 1.0000
43.9600 7571.0000 1.0000
43.9800 7556.0000 1.0000
44.0000 7378.0000 1.0000
44.0200 7514.0000 1.0000
44.0400 7448.0000 1.0000
44.0600 7581.0000 1.0000
44.0800 7586.0000 1.0000
44.1000 7527.0000 1.0000
44.1200 7591.0000 1.0000
44.1400 7624.0000 1.0000
44.1600 7583.0000 1.0000
44.1800 7725.0000 1.0000
44.2000 7661.0000 1.0000
44.2200 7596.0000 1.0000
44.2400 7565.0000 1.0000
44.2600 7509.0000 1.0000
44.2800 7489.0000 1.0000
44.3000 7553.0000 1.0000
44.3200 7549.0000 1.0000
44.3400 7577.0000 1.0000
44.3600 7674.0000 1.0000
44.3800 7486.0000 1.0000
44.4000 7620.0000 1.0000
44.4200 7622.0000 1.0000
44.4400 7456.0000 1.0000
44.4600 7504.0000 1.0000
44.4800 7596.0000 1.0000
44.5000 7413.0000 1.0000
44.5200 7394.0000 1.0000
44.5400 7607.0000 1.0000
44.5600 7454.0000 1.0000
44.5800 7582.0000 1.0000
44.6000 7454.0000 1.0000
44.6200 7455.0000 1.0000
44.6400 7387.0000 1.0000
44.6600 7547.0000 1.0000
44.6800 7506.0000 1.0000
44.7000 7529.0000 1.0000
44.7200 7656.0000 1.0000
44.7400 7566.0000 1.0000
44.7600 7627.0000 1.0000
44.7800 7490.0000 1.0000
44.8000 7351.0000 1.0000
44.8200 7421.0000 1.0000
44.8400 7537.0000 1.0000
44.8600 7500.0000 1.0000
44.8800 7474.0000 1.0000
44.9000 7392.0000 1.0000
44.9200 7407.0000 1.0000
44.9400 7561.0000 1.0000
44.9600 7611.0000 1.0000
44.9800 7525.0000 1.0000
45.0000 7559.0000 1.0000
45.0200 7598.0000 1.0000
45.0400 7567.0000 1.0000
45.0600 7499.0000 1.0000
45.0800 7524.0000 1.0000
45.1000 7457.0000 1.0000
45.1200 7468.0000 1.0000
45.1400 7770.0000 1.0000
45.1600 7592.0000 1.0000
45.1800 7463.0000 1.0000
45.2000 7412.0000 1.0000
45.2200 7494.0000 1.0000
45.2400 7472.0000 1.0000
45.2600 7619.0000 1.0000
45.2800 7462.0000 1.0000
45.3000 7549.0000 1.0000
45.3200 7589.0000 1.0000
45.3400 7484.0000 1.0000
45.3600 7559.0000 1.0000
45.3800 7495.0000 1.0000
45.4000 7639.0000 1.0000
45.4200 7526.0000 1.0000
45.4400 7615.0000 1.0000
45.4600 7564.0000 1.0000
45.4800 7509.0000 1.0000
45.5000 7464.0000 1.0000
45.5200 7695.0000 1.0000
45.5400 7543.0000 1.0000
45.5600 7619.0000 1.0000
45.5800 7678.0000 1.0000
45.6000 7731.0000 1.0000
45.6200 7627.0000 1.0000
45.6400 7786.0000 1.0000
45.6600 7743.0000 1.0000
45.6800 7643.0000 1.0000
45.7000 8127.0000 1.0000
45.7200 8167.0000 1.0000
45.7400 8359.0000 1.0000
45.7600 9184.0000 1.0000
45.7800 10682.0000 1.0000
45.8000 12150.0000 1.0000
45.8200 11349.0000 1.0000
45.8400 9487.0000 1.0000
45.8600 8739.0000 1.0000
45.8800 8796.0000 1.0000
45.9000 9170.0000 1.0000
45.9200 9914.0000 1.0000
45.9400 9652.0000 1.0000
45.9600 8655.0000 1.0000
45.9800 8004.0000 1.0000
46.0000 7743.0000 1.0000
46.0200 7758.0000 1.0000
46.0400 7653.0000 1.0000
46.0600 7435.0000 1.0000
46.0800 7568.0000 1.0000
46.1000 7630.0000 1.0000
46.1200 7677.0000 1.0000
46.1400 7541.0000 1.0000
46.1600 7678.0000 1.0000
46.1800 7540.0000 1.0000
46.2000 7547.0000 1.0000
46.2200 7697.0000 1.0000
46.2400 7509.0000 1.0000
46.2600 7390.0000 1.0000
46.2800 7397.0000 1.0000
46.3000 7500.0000 1.0000
46.3200 7549.0000 1.0000
46.3400 7712.0000 1.0000
46.3600 7547.0000 1.0000
46.3800 7503.0000 1.0000
46.4000 7475.0000 1.0000
46.4200 7509.0000 1.0000
46.4400 7517.0000 1.0000
46.4600 7493.0000 1.0000
46.4800 7548.0000 1.0000
46.5000 7502.0000 1.0000
46.5200 7418.0000 1.0000
46.5400 7468.0000 1.0000
46.5600 7378.0000 1.0000
46.5800 7469.0000 1.0000
46.6000 7423.0000 1.0000
46.6200 7534.0000 1.0000
46.6400 7446.0000 1.0000
46.6600 7487.0000 1.0000
46.6800 7560.0000 1.0000
46.7000 7492.0000 1.0000
46.7200 7466.0000 1.0000
46.7400 7382.0000 1.0000
46.7600 7582.0000 1.0000
46.7800 7633.0000 1.0000
46.8000 7440.0000 1.0000
46.8200 7466.0000 1.0000
46.8400 7457.0000 1.0000
46.8600 7466.0000 1.0000
46.8800 7668.0000 1.0000
46.9000 7488.0000 1.0000
46.9200 7624.0000 1.0000
46.9400 7388.0000 1.0000
46.9600 7442.0000 1.0000
46.9800 7545.0000 1.0000
47.0000 7574.0000 1.0000
47.0200 7609.0000 1.0000
47.0400 7462.0000 1.0000
47.0600 7578.0000 1.0000
47.0800 7421.0000 1.0000
47.1000 7471.0000 1.0000
47.1200 7526.0000 1.0000
47.1400 7555.0000 1.0000
47.1600 7423.0000 1.0000
47.1800 7502.0000 1.0000
47.2000 7429.0000 1.0000
47.2200 7618.0000 1.0000
47.2400 7425.0000 1.0000
47.2600 7488.0000 1.0000
47.2800 7561.0000 1.0000
47.3000 7515.0000 1.0000
47.3200 7463.0000 1.0000
47.3400 7463.0000 1.0000
47.3600 7627.0000 1.0000
47.3800 7386.0000 1.0000
47.4000 7445.0000 1.0000
47.4200 7434.0000 1.0000
47.4400 7483.0000 1.0000
47.4600 7375.0000 1.0000
47.4800 7438.0000 1.0000
47.5000 7440.0000 1.0000
47.5200 7330.0000 1.0000
47.5400 7628.0000 1.0000
47.5600 7529.0000 1.0000
47.5800 7594.0000 1.0000
47.6000 7483.0000 1.0000
47.6200 7570.0000 1.0000
47.6400 7536.0000 1.0000
47.6600 7607.0000 1.0000
47.6800 7543.0000 1.0000
47.7000 7517.0000 1.0000
47.7200 7332.0000 1.0000
47.7400 7495.0000 1.0000
47.7600 7465.0000 1.0000
47.7800 7588.0000 1.0000
47.8000 7467.0000 1.0000
47.8200 7405.0000 1.0000
47.8400 7485.0000 1.0000
47.8600 7464.0000 1.0000
47.8800 7461.0000 1.0000
47.9000 7518.0000 1.0000
47.9200 7372.0000 1.0000
47.9400 7549.0000 1.0000
47.9600 7580.0000 1.0000
47.9800 7499.0000 1.0000
48.0000 7511.0000 1.0000
48.0200 7631.0000 1.0000
48.0400 7547.0000 1.0000
48.0600 7493.0000 1.0000
48.0800 7562.0000 1.0000
48.1000 7435.0000 1.0000
48.1200 7435.0000 1.0000
48.1400 7459.0000 1.0000
48.1600 7448.0000 1.0000
48.1800 7515.0000 1.0000
48.2000 7579.0000 1.0000
48.2200 7529.0000 1.0000
48.2400 7513.0000 1.0000
48.2600 7562.0000 1.0000
48.2800 7546.0000 1.0000
48.3000 7475.0000 1.0000
48.3200 7538.0000 1.0000
48.3400 7593.0000 1.0000
48.3600 7447.0000 1.0000
48.3800 7399.0000 1.0000
48.4000 7643.0000 1.0000
48.4200 7562.0000 1.0000
48.4400 7553.0000 1.0000
48.4600 7552.0000 1.0000
48.4800 7772.0000 1.0000
48.5000 7627.0000 1.0000
48.5200 7596.0000 1.0000
48.5400 7651.0000 1.0000
48.5600 7511.0000 1.0000
48.5800 7557.0000 1.0000
48.6000 7576.0000 1.0000
48.6200 7566.0000 1.0000
48.6400 7679.0000 1.0000
48.6600 7631.0000 1.0000
48.6800 7568.0000 1.0000
48.7000 7455.0000 1.0000
48.7200 7644.0000 1.0000
48.7400 7649.0000 1.0000
48.7600 7454.0000 1.0000
48.7800 7525.0000 1.0000
48.8000 7495.0000 1.0000
48.8200 7656.0000 1.0000
48.8400 7657.0000 1.0000
48.8600 7708.0000 1.0000
48.8800 7525.0000 1.0000
48.9000 7425.0000 1.0000
48.9200 7459.0000 1.0000
48.9400 7691.0000 1.0000
48.9600 7595.0000 1.0000
48.9800 7596.0000 1.0000
49.0000 7495.0000 1.0000
49.0200 7518.0000 1.0000
49.0400 7550.0000 1.0000
49.0600 7705.0000 1.0000
49.0800 7506.0000 1.0000
49.1000 7579.0000 1.0000
49.1200 7766.0000 1.0000
49.1400 7723.0000 1.0000
49.1600 7890.0000 1.0000
49.1800 7710.0000 1.0000
49.2000 7946.0000 1.0000
49.2200 7950.0000 1.0000
49.2400 8059.0000 1.0000
49.2600 8109.0000 1.0000
49.2800 8013.0000 1.0000
49.3000 8299.0000 1.0000
49.3200 8369.0000 1.0000
49.3400 8663.0000 1.0000
49.3600 8934.0000 1.0000
49.3800 9416.0000 1.0000
49.4000 9943.0000 1.0000
49.4200 10834.0000 1.0000
49.4400 11752.0000 1.0000
49.4600 12592.0000 1.0000
49.4800 12539.0000 1.0000
49.5000 11961.0000 1.0000
49.5200 11186.0000 1.0000
49.5400 10668.0000 1.0000
49.5600 10494.0000 1.0000
49.5800 10468.0000 1.0000
49.6000 10543.0000 1.0000
49.6200 10257.0000 1.0000
49.6400 9855.0000 1.0000
49.6600 9120.0000 1.0000
49.6800 8637.0000 1.0000
49.7000 8439.0000 1.0000
49.7200 8176.0000 1.0000
49.7400 8066.0000 1.0000
49.7600 7917.0000 1.0000
49.7800 8001.0000 1.0000
49.8000 7926.0000 1.0000
49.8200 7960.0000 1.0000
49.8400 7884.0000 1.0000
49.8600 7870.0000 1.0000
49.8800 7894.0000 1.0000
49.9000 7958.0000 1.0000
49.9200 7850.0000 1.0000
49.9400 8129.0000 1.0000
49.9600 8186.0000 1.0000
49.9800 8136.0000 1.0000
50.0000 8485.0000 1.0000
50.0200 8637.0000 1.0000
50.0400 8873.0000 1.0000
50.0600 9664.0000 1.0000
50.0800 11039.0000 1.0000
50.1000 12810.0000 1.0000
50.1200 15585.0000 1.0000
50.1400 18676.0000 1.0000
50.1600 18987.0000 1.0000
50.1800 15219.0000 1.0000
50.2000 11808.0000 1.0000
50.2200 10689.0000 1.0000
50.2400 11457.0000 1.0000
50.2600 12619.0000 1.0000
50.2800 13503.0000 1.0000
50.3000 13011.0000 1.0000
50.3200 10855.0000 1.0000
50.3400 9163.0000 1.0000
50.3600 8513.0000 1.0000
50.3800 8097.0000 1.0000
50.4000 7940.0000 1.0000
50.4200 8052.0000 1.0000
50.4400 7909.0000 1.0000
50.4600 7812.0000 1.0000
50.4800 7776.0000 1.0000
50.5000 7677.0000 1.0000
50.5200 7601.0000 1.0000
50.5400 7770.0000 1.0000
50.5600 7677.0000 1.0000
50.5800 7562.0000 1.0000
50.6000 7823.0000 1.0000
50.6200 7678.0000 1.0000
50.6400 7839.0000 1.0000
50.6600 7660.0000 1.0000
50.6800 7718.0000 1.0000
50.7000 7509.0000 1.0000
50.7200 7553.0000 1.0000
50.7400 7410.0000 1.0000
50.7600 7658.0000 1.0000
50.7800 7666.0000 1.0000
50.8000 7738.0000 1.0000
50.8200 7728.0000 1.0000
50.8400 7636.0000 1.0000
50.8600 7568.0000 1.0000
50.8800 7502.0000 1.0000
50.9000 7560.0000 1.0000
50.9200 7513.0000 1.0000
50.9400 7510.0000 1.0000
50.9600 7537.0000 1.0000
50.9800 7558.0000 1.0000
51.0000 7600.0000 1.0000
51.0200 7578.0000 1.0000
51.0400 7537.0000 1.0000
51.0600 7590.0000 1.0000
51.0800 7558.0000 1.0000
51.1000 7587.0000 1.0000
51.1200 7628.0000 1.0000
51.1400 7579.0000 1.0000
51.1600 7481.0000 1.0000
51.1800 7357.0000 1.0000
51.2000 7482.0000 1.0000
51.2200 7363.0000 1.0000
51.2400 7575.0000 1.0000
51.2600 7465.0000 1.0000
51.2800 7688.0000 1.0000
51.3000 7651.0000 1.0000
51.3200 7487.0000 1.0000
51.3400 7549.0000 1.0000
51.3600 7670.0000 1.0000
51.3800 7509.0000 1.0000
51.4000 7399.0000 1.0000
51.4200 7527.0000 1.0000
51.4400 7425.0000 1.0000
51.4600 7658.0000 1.0000
51.4800 7724.0000 1.0000
51.5000 7494.0000 1.0000
51.5200 7638.0000 1.0000
51.5400 7582.0000 1.0000
51.5600 7605.0000 1.0000
51.5800 7673.0000 1.0000
51.6000 7447.0000 1.0000
51.6200 7518.0000 1.0000
51.6400 7513.0000 1.0000
51.6600 7710.0000 1.0000
51.6800 7611.0000 1.0000
51.7000 7656.0000 1.0000
51.7200 7387.0000 1.0000
51.7400 7573.0000 1.0000
51.7600 7715.0000 1.0000
51.7800 7532.0000 1.0000
51.8000 7506.0000 1.0000
51.8200 7511.0000 1.0000
51.8400 7516.0000 1.0000
51.8600 7524.0000 1.0000
51.8800 7398.0000 1.0000
51.9000 7500.0000 1.0000
51.9200 7618.0000 1.0000
51.9400 7596.0000 1.0000
51.9600 7542.0000 1.0000
51.9800 7429.0000 1.0000
52.0000 7468.0000 1.0000
52.0200 7587.0000 1.0000
52.0400 7610.0000 1.0000
52.0600 7618.0000 1.0000
52.0800 7548.0000 1.0000
52.1000 7573.0000 1.0000
52.1200 7612.0000 1.0000
52.1400 7626.0000 1.0000
52.1600 7609.0000 1.0000
52.1800 7556.0000 1.0000
52.2000 7654.0000 1.0000
52.2200 7595.0000 1.0000
52.2400 7660.0000 1.0000
52.2600 7608.0000 1.0000
52.2800 7596.0000 1.0000
52.3000 7760.0000 1.0000
52.3200 7694.0000 1.0000
52.3400 7794.0000 1.0000
52.3600 7867.0000 1.0000
52.3800 7689.0000 1.0000
52.4000 7827.0000 1.0000
52.4200 7824.0000 1.0000
52.4400 7933.0000 1.0000
52.4600 8101.0000 1.0000
52.4800 8029.0000 1.0000
52.5000 8129.0000 1.0000
52.5200 8393.0000 1.0000
52.5400 8777.0000 1.0000
52.5600 8595.0000 1.0000
52.5800 8407.0000 1.0000
52.6000 8381.0000 1.0000
52.6200 8231.0000 1.0000
52.6400 8166.0000 1.0000
52.6600 8304.0000 1.0000
52.6800 8161.0000 1.0000
52.7000 8251.0000 1.0000
52.7200 8057.0000 1.0000
52.7400 8018.0000 1.0000
52.7600 7729.0000 1.0000
52.7800 7766.0000 1.0000
52.8000 7730.0000 1.0000
52.8200 7538.0000 1.0000
52.8400 7600.0000 1.0000
52.8600 7585.0000 1.0000
52.8800 7625.0000 1.0000
52.9000 7615.0000 1.0000
52.9200 7597.0000 1.0000
52.9400 7644.0000 1.0000
52.9600 7456.0000 1.0000
52.9800 7627.0000 1.0000
53.0000 7665.0000 1.0000
53.0200 7615.0000 1.0000
53.0400 7517.0000 1.0000
53.0600 7545.0000 1.0000
53.0800 7645.0000 1.0000
53.1000 7610.0000 1.0000
53.1200 7628.0000 1.0000
53.1400 7428.0000 1.0000
53.1600 7683.0000 1.0000
53.1800 7610.0000 1.0000
53.2000 7582.0000 1.0000
53.2200 7625.0000 1.0000
53.2400 7582.0000 1.0000
53.2600 7639.0000 1.0000
53.2800 7644.0000 1.0000
53.3000 7628.0000 1.0000
53.3200 7491.0000 1.0000
53.3400 7508.0000 1.0000
53.3600 7580.0000 1.0000
53.3800 7754.0000 1.0000
53.4000 7503.0000 1.0000
53.4200 7862.0000 1.0000
53.4400 7662.0000 1.0000
53.4600 7762.0000 1.0000
53.4800 7791.0000 1.0000
53.5000 7922.0000 1.0000
53.5200 7782.0000 1.0000
53.5400 7829.0000 1.0000
53.5600 7727.0000 1.0000
53.5800 7867.0000 1.0000
53.6000 7799.0000 1.0000
53.6200 7872.0000 1.0000
53.6400 7740.0000 1.0000
53.6600 8067.0000 1.0000
53.6800 7719.0000 1.0000
53.7000 7899.0000 1.0000
53.7200 7824.0000 1.0000
53.7400 7904.0000 1.0000
53.7600 7998.0000 1.0000
53.7800 7973.0000 1.0000
53.8000 7872.0000 1.0000
53.8200 8122.0000 1.0000
53.8400 7954.0000 1.0000
53.8600 8321.0000 1.0000
53.8800 8210.0000 1.0000
53.9000 8384.0000 1.0000
53.9200 8800.0000 1.0000
53.9400 8649.0000 1.0000
53.9600 9056.0000 1.0000
53.9800 9679.0000 1.0000
54.0000 10301.0000 1.0000
54.0200 11363.0000 1.0000
54.0400 12414.0000 1.0000
54.0600 13464.0000 1.0000
54.0800 13816.0000 1.0000
54.1000 13114.0000 1.0000
54.1200 12129.0000 1.0000
54.1400 11231.0000 1.0000
54.1600 10842.0000 1.0000
54.1800 10868.0000 1.0000
54.2000 11040.0000 1.0000
54.2200 11179.0000 1.0000
54.2400 10555.0000 1.0000
54.2600 10105.0000 1.0000
54.2800 9336.0000 1.0000
54.3000 8981.0000 1.0000
54.3200 8577.0000 1.0000
54.3400 8292.0000 1.0000
54.3600 8095.0000 1.0000
54.3800 8034.0000 1.0000
54.4000 8076.0000 1.0000
54.4200 7837.0000 1.0000
54.4400 7748.0000 1.0000
54.4600 7711.0000 1.0000
54.4800 7659.0000 1.0000
54.5000 7778.0000 1.0000
54.5200 7791.0000 1.0000
54.5400 7604.0000 1.0000
54.5600 7665.0000 1.0000
54.5800 7628.0000 1.0000
54.6000 7750.0000 1.0000
54.6200 7645.0000 1.0000
54.6400 7712.0000 1.0000
54.6600 7620.0000 1.0000
54.6800 7640.0000 1.0000
54.7000 7600.0000 1.0000
54.7200 7628.0000 1.0000
54.7400 7778.0000 1.0000
54.7600 7878.0000 1.0000
54.7800 7887.0000 1.0000
54.8000 8321.0000 1.0000
54.8200 8933.0000 1.0000
54.8400 9513.0000 1.0000
54.8600 10701.0000 1.0000
54.8800 11446.0000 1.0000
54.9000 10696.0000 1.0000
54.9200 9381.0000 1.0000
54.9400 8672.0000 1.0000
54.9600 8551.0000 1.0000
54.9800 8566.0000 1.0000
55.0000 9053.0000 1.0000
55.0200 9618.0000 1.0000
55.0400 9443.0000 1.0000
55.0600 8880.0000 1.0000
55.0800 8241.0000 1.0000
55.1000 8105.0000 1.0000
55.1200 7822.0000 1.0000
55.1400 7759.0000 1.0000
55.1600 7782.0000 1.0000
55.1800 7909.0000 1.0000
55.2000 7863.0000 1.0000
55.2200 7804.0000 1.0000
55.2400 8016.0000 1.0000
55.2600 8045.0000 1.0000
55.2800 8149.0000 1.0000
55.3000 8631.0000 1.0000
55.3200 9081.0000 1.0000
55.3400 9063.0000 1.0000
55.3600 8693.0000 1.0000
55.3800 8320.0000 1.0000
55.4000 7978.0000 1.0000
55.4200 8043.0000 1.0000
55.4400 8047.0000 1.0000
55.4600 8237.0000 1.0000
55.4800 8283.0000 1.0000
55.5000 8309.0000 1.0000
55.5200 8034.0000 1.0000
55.5400 7920.0000 1.0000
55.5600 7497.0000 1.0000
55.5800 7490.0000 1.0000
55.6000 7567.0000 1.0000
55.6200 7612.0000 1.0000
55.6400 7527.0000 1.0000
55.6600 7646.0000 1.0000
55.6800 7547.0000 1.0000
55.7000 7596.0000 1.0000
55.7200 7601.0000 1.0000
55.7400 7583.0000 1.0000
55.7600 7399.0000 1.0000
55.7800 7487.0000 1.0000
55.8000 7654.0000 1.0000
55.8200 7678.0000 1.0000
55.8400 7709.0000 1.0000
55.8600 7683.0000 1.0000
55.8800 7478.0000 1.0000
55.9000 7615.0000 1.0000
55.9200 7511.0000 1.0000
55.9400 7745.0000 1.0000
55.9600 7607.0000 1.0000
55.9800 7478.0000 1.0000
56.0000 7579.0000 1.0000
56.0200 7725.0000 1.0000
56.0400 7518.0000 1.0000
56.0600 7553.0000 1.0000
56.0800 7585.0000 1.0000
56.1000 7606.0000 1.0000
56.1200 7523.0000 1.0000
56.1400 7740.0000 1.0000
56.1600 7662.0000 1.0000
56.1800 7712.0000 1.0000
56.2000 7486.0000 1.0000
56.2200 7526.0000 1.0000
56.2400 7450.0000 1.0000
56.2600 7601.0000 1.0000
56.2800 7476.0000 1.0000
56.3000 7520.0000 1.0000
56.3200 7541.0000 1.0000
56.3400 7675.0000 1.0000
56.3600 7496.0000 1.0000
56.3800 7518.0000 1.0000
56.4000 7498.0000 1.0000
56.4200 7426.0000 1.0000
56.4400 7514.0000 1.0000
56.4600 7505.0000 1.0000
56.4800 7480.0000 1.0000
56.5000 7545.0000 1.0000
56.5200 7524.0000 1.0000
56.5400 7493.0000 1.0000
56.5600 7451.0000 1.0000
56.5800 7552.0000 1.0000
56.6000 7539.0000 1.0000
56.6200 7366.0000 1.0000
56.6400 7771.0000 1.0000
56.6600 7570.0000 1.0000
56.6800 7578.0000 1.0000
56.7000 7610.0000 1.0000
56.7200 7717.0000 1.0000
56.7400 7498.0000 1.0000
56.7600 7616.0000 1.0000
56.7800 7771.0000 1.0000
56.8000 7609.0000 1.0000
56.8200 7649.0000 1.0000
56.8400 7740.0000 1.0000
56.8600 7768.0000 1.0000
56.8800 7753.0000 1.0000
56.9000 7792.0000 1.0000
56.9200 7801.0000 1.0000
56.9400 7906.0000 1.0000
56.9600 8026.0000 1.0000
56.9800 8311.0000 1.0000
57.0000 8227.0000 1.0000
57.0200 8481.0000 1.0000
57.0400 8315.0000 1.0000
57.0600 8323.0000 1.0000
57.0800 8290.0000 1.0000
57.1000 8177.0000 1.0000
57.1200 8097.0000 1.0000
57.1400 8390.0000 1.0000
57.1600 8401.0000 1.0000
57.1800 8485.0000 1.0000
57.2000 8581.0000 1.0000
57.2200 8561.0000 1.0000
57.2400 8542.0000 1.0000
57.2600 8346.0000 1.0000
57.2800 8336.0000 1.0000
57.3000 8318.0000 1.0000
57.3200 8465.0000 1.0000
57.3400 8374.0000 1.0000
57.3600 8501.0000 1.0000
57.3800 8744.0000 1.0000
57.4000 9019.0000 1.0000
57.4200 9111.0000 1.0000
57.4400 9488.0000 1.0000
57.4600 9811.0000 1.0000
57.4800 10012.0000 1.0000
57.5000 10407.0000 1.0000
57.5200 10229.0000 1.0000
57.5400 10017.0000 1.0000
57.5600 10055.0000 1.0000
57.5800 9828.0000 1.0000
57.6000 9972.0000 1.0000
57.6200 10122.0000 1.0000
57.6400 9991.0000 1.0000
57.6600 9547.0000 1.0000
57.6800 9348.0000 1.0000
57.7000 9012.0000 1.0000
57.7200 8824.0000 1.0000
57.7400 8769.0000 1.0000
57.7600 8658.0000 1.0000
57.7800 8555.0000 1.0000
57.8000 8321.0000 1.0000
57.8200 8052.0000 1.0000
57.8400 7954.0000 1.0000
57.8600 7899.0000 1.0000
57.8800 7764.0000 1.0000
57.9000 7727.0000 1.0000
57.9200 7848.0000 1.0000
57.9400 7723.0000 1.0000
57.9600 7835.0000 1.0000
57.9800 7751.0000 1.0000
58.0000 7690.0000 1.0000
58.0200 7679.0000 1.0000
58.0400 7585.0000 1.0000
58.0600 7544.0000 1.0000
58.0800 7594.0000 1.0000
58.1000 7660.0000 1.0000
58.1200 7509.0000 1.0000
58.1400 7758.0000 1.0000
58.1600 7693.0000 1.0000
58.1800 7645.0000 1.0000
58.2000 7686.0000 1.0000
58.2200 7438.0000 1.0000
58.2400 7582.0000 1.0000
58.2600 7588.0000 1.0000
58.2800 7677.0000 1.0000
58.3000 7625.0000 1.0000
58.3200 7678.0000 1.0000
58.3400 7585.0000 1.0000
58.3600 7605.0000 1.0000
58.3800 7583.0000 1.0000
58.4000 7490.0000 1.0000
58.4200 7699.0000 1.0000
58.4400 7550.0000 1.0000
58.4600 7639.0000 1.0000
58.4800 7556.0000 1.0000
58.5000 7478.0000 1.0000
58.5200 7562.0000 1.0000
58.5400 7622.0000 1.0000
58.5600 7589.0000 1.0000
58.5800 7508.0000 1.0000
58.6000 7522.0000 1.0000
58.6200 7412.0000 1.0000
58.6400 7517.0000 1.0000
58.6600 7391.0000 1.0000
58.6800 7405.0000 1.0000
58.7000 7478.0000 1.0000
58.7200 7554.0000 1.0000
58.7400 7593.0000 1.0000
58.7600 7437.0000 1.0000
58.7800 7517.0000 1.0000
58.8000 7459.0000 1.0000
58.8200 7505.0000 1.0000
58.8400 7453.0000 1.0000
58.8600 7520.0000 1.0000
58.8800 7610.0000 1.0000
58.9000 7566.0000 1.0000
58.9200 7670.0000 1.0000
58.9400 7657.0000 1.0000
58.9600 7506.0000 1.0000
58.9800 7519.0000 1.0000
59.0000 7526.0000 1.0000
59.0200 7483.0000 1.0000
59.0400 7537.0000 1.0000
59.0600 7466.0000 1.0000
59.0800 7764.0000 1.0000
59.1000 7544.0000 1.0000
59.1200 7613.0000 1.0000
59.1400 7554.0000 1.0000
59.1600 7659.0000 1.0000
59.1800 7586.0000 1.0000
59.2000 7716.0000 1.0000
59.2200 7641.0000 1.0000
59.2400 7507.0000 1.0000
59.2600 7536.0000 1.0000
59.2800 7567.0000 1.0000
59.3000 7510.0000 1.0000
59.3200 7597.0000 1.0000
59.3400 7605.0000 1.0000
59.3600 7537.0000 1.0000
59.3800 7695.0000 1.0000
59.4000 7523.0000 1.0000
59.4200 7577.0000 1.0000
59.4400 7586.0000 1.0000
59.4600 7627.0000 1.0000
59.4800 7628.0000 1.0000
59.5000 7739.0000 1.0000
59.5200 7545.0000 1.0000
59.5400 7602.0000 1.0000
59.5600 7646.0000 1.0000
59.5800 7629.0000 1.0000
59.6000 7647.0000 1.0000
59.6200 7625.0000 1.0000
59.6400 7682.0000 1.0000
59.6600 7710.0000 1.0000
59.6800 7824.0000 1.0000
59.7000 7777.0000 1.0000
59.7200 7714.0000 1.0000
59.7400 7996.0000 1.0000
59.7600 8008.0000 1.0000
59.7800 7996.0000 1.0000
59.8000 8061.0000 1.0000
59.8200 7955.0000 1.0000
59.8400 8324.0000 1.0000
59.8600 8727.0000 1.0000
59.8800 9247.0000 1.0000
59.9000 10260.0000 1.0000
59.9200 12361.0000 1.0000
59.9400 15322.0000 1.0000
59.9600 16980.0000 1.0000
59.9800 15050.0000 1.0000
60.0000 12196.0000 1.0000
60.0200 10474.0000 1.0000
60.0400 9488.0000 1.0000
60.0600 9410.0000 1.0000
60.0800 10276.0000 1.0000
60.1000 11494.0000 1.0000
60.1200 12421.0000 1.0000
60.1400 11883.0000 1.0000
60.1600 10523.0000 1.0000
60.1800 9125.0000 1.0000
60.2000 8396.0000 1.0000
60.2200 8079.0000 1.0000
60.2400 7967.0000 1.0000
60.2600 7968.0000 1.0000
60.2800 7739.0000 1.0000
60.3000 7929.0000 1.0000
60.3200 7730.0000 1.0000
60.3400 7637.0000 1.0000
60.3600 7628.0000 1.0000
60.3800 7501.0000 1.0000
60.4000 7645.0000 1.0000
60.4200 7767.0000 1.0000
60.4400 7713.0000 1.0000
60.4600 7701.0000 1.0000
60.4800 7754.0000 1.0000
60.5000 7489.0000 1.0000
60.5200 7595.0000 1.0000
60.5400 7749.0000 1.0000
60.5600 7524.0000 1.0000
60.5800 7693.0000 1.0000
60.6000 7668.0000 1.0000
60.6200 7628.0000 1.0000
60.6400 7673.0000 1.0000
60.6600 7585.0000 1.0000
60.6800 7387.0000 1.0000
60.7000 7590.0000 1.0000
60.7200 7636.0000 1.0000
60.7400 7554.0000 1.0000
60.7600 7435.0000 1.0000
60.7800 7606.0000 1.0000
60.8000 7668.0000 1.0000
60.8200 7756.0000 1.0000
60.8400 7721.0000 1.0000
60.8600 7712.0000 1.0000
60.8800 7678.0000 1.0000
60.9000 7654.0000 1.0000
60.9200 7654.0000 1.0000
60.9400 7591.0000 1.0000
60.9600 7787.0000 1.0000
60.9800 7600.0000 1.0000
61.0000 7405.0000 1.0000
61.0200 7608.0000 1.0000
61.0400 7589.0000 1.0000
61.0600 7574.0000 1.0000
61.0800 7626.0000 1.0000
61.1000 7775.0000 1.0000
61.1200 7614.0000 1.0000
61.1400 7691.0000 1.0000
61.1600 7708.0000 1.0000
61.1800 7736.0000 1.0000
61.2000 7652.0000 1.0000
61.2200 7577.0000 1.0000
61.2400 7577.0000 1.0000
61.2600 7723.0000 1.0000
61.2800 7740.0000 1.0000
61.3000 7729.0000 1.0000
61.3200 7762.0000 1.0000
61.3400 7789.0000 1.0000
61.3600 7698.0000 1.0000
61.3800 7675.0000 1.0000
61.4000 7677.0000 1.0000
61.4200 7578.0000 1.0000
61.4400 7658.0000 1.0000
61.4600 7719.0000 1.0000
61.4800 7693.0000 1.0000
61.5000 7640.0000 1.0000
61.5200 7581.0000 1.0000
61.5400 7633.0000 1.0000
61.5600 7664.0000 1.0000
61.5800 7541.0000 1.0000
61.6000 7510.0000 1.0000
61.6200 7580.0000 1.0000
61.6400 7597.0000 1.0000
61.6600 7683.0000 1.0000
61.6800 7629.0000 1.0000
61.7000 7689.0000 1.0000
61.7200 7670.0000 1.0000
61.7400 7664.0000 1.0000
61.7600 7535.0000 1.0000
61.7800 7628.0000 1.0000
61.8000 7722.0000 1.0000
61.8200 7588.0000 1.0000
61.8400 7672.0000 1.0000
61.8600 7615.0000 1.0000
61.8800 7425.0000 1.0000
61.9000 7684.0000 1.0000
61.9200 7603.0000 1.0000
61.9400 7576.0000 1.0000
61.9600 7629.0000 1.0000
61.9800 7681.0000 1.0000
62.0000 7564.0000 1.0000
62.0200 7778.0000 1.0000
62.0400 7807.0000 1.0000
62.0600 7809.0000 1.0000
62.0800 7636.0000 1.0000
62.1000 7896.0000 1.0000
62.1200 7806.0000 1.0000
62.1400 7676.0000 1.0000
62.1600 7867.0000 1.0000
62.1800 7845.0000 1.0000
62.2000 8006.0000 1.0000
62.2200 7996.0000 1.0000
62.2400 8151.0000 1.0000
62.2600 8033.0000 1.0000
62.2800 8264.0000 1.0000
62.3000 8264.0000 1.0000
62.3200 8567.0000 1.0000
62.3400 8917.0000 1.0000
62.3600 9368.0000 1.0000
62.3800 9891.0000 1.0000
62.4000 10548.0000 1.0000
62.4200 11422.0000 1.0000
62.4400 11709.0000 1.0000
62.4600 11333.0000 1.0000
62.4800 10860.0000 1.0000
62.5000 10136.0000 1.0000
62.5200 9953.0000 1.0000
62.5400 9865.0000 1.0000
62.5600 10083.0000 1.0000
62.5800 10490.0000 1.0000
62.6000 10785.0000 1.0000
62.6200 10990.0000 1.0000
62.6400 10515.0000 1.0000
62.6600 9780.0000 1.0000
62.6800 9421.0000 1.0000
62.7000 9144.0000 1.0000
62.7200 8962.0000 1.0000
62.7400 8729.0000 1.0000
62.7600 8668.0000 1.0000
62.7800 8656.0000 1.0000
62.8000 8430.0000 1.0000
62.8200 8378.0000 1.0000
62.8400 8301.0000 1.0000
62.8600 8220.0000 1.0000
62.8800 8140.0000 1.0000
62.9000 8224.0000 1.0000
62.9200 7939.0000 1.0000
62.9400 7952.0000 1.0000
62.9600 8051.0000 1.0000
62.9800 7957.0000 1.0000
63.0000 7714.0000 1.0000
63.0200 7849.0000 1.0000
63.0400 7586.0000 1.0000
63.0600 7739.0000 1.0000
63.0800 7714.0000 1.0000
63.1000 7744.0000 1.0000
63.1200 7884.0000 1.0000
63.1400 7739.0000 1.0000
63.1600 7671.0000 1.0000
63.1800 7752.0000 1.0000
63.2000 7705.0000 1.0000
63.2200 7764.0000 1.0000
63.2400 7607.0000 1.0000
63.2600 7749.0000 1.0000
63.2800 7685.0000 1.0000
63.3000 7529.0000 1.0000
63.3200 7754.0000 1.0000
63.3400 7598.0000 1.0000
63.3600 7546.0000 1.0000
63.3800 7712.0000 1.0000
63.4000 7576.0000 1.0000
63.4200 7647.0000 1.0000
63.4400 7612.0000 1.0000
63.4600 7613.0000 1.0000
63.4800 7842.0000 1.0000
63.5000 7670.0000 1.0000
63.5200 7712.0000 1.0000
63.5400 7591.0000 1.0000
63.5600 7693.0000 1.0000
63.5800 7553.0000 1.0000
63.6000 7783.0000 1.0000
63.6200 7749.0000 1.0000
63.6400 7935.0000 1.0000
63.6600 7783.0000 1.0000
63.6800 7869.0000 1.0000
63.7000 7749.0000 1.0000
63.7200 7797.0000 1.0000
63.7400 7884.0000 1.0000
63.7600 7940.0000 1.0000
63.7800 8105.0000 1.0000
63.8000 8073.0000 1.0000
63.8200 8154.0000 1.0000
63.8400 8295.0000 1.0000
63.8600 8500.0000 1.0000
63.8800 8652.0000 1.0000
63.9000 8974.0000 1.0000
63.9200 9277.0000 1.0000
63.9400 9897.0000 1.0000
63.9600 10780.0000 1.0000
63.9800 11972.0000 1.0000
64.0000 12752.0000 1.0000
64.0200 13149.0000 1.0000
64.0400 12844.0000 1.0000
64.0600 11443.0000 1.0000
64.0800 10381.0000 1.0000
64.1000 9931.0000 1.0000
64.1200 9584.0000 1.0000
64.1400 9975.0000 1.0000
64.1600 10297.0000 1.0000
64.1800 10655.0000 1.0000
64.2000 10513.0000 1.0000
64.2200 10108.0000 1.0000
64.2400 9638.0000 1.0000
64.2600 8765.0000 1.0000
64.2800 8488.0000 1.0000
64.3000 8092.0000 1.0000
64.3200 8126.0000 1.0000
64.3400 7986.0000 1.0000
64.3600 7969.0000 1.0000
64.3800 8050.0000 1.0000
64.4000 7857.0000 1.0000
64.4200 7855.0000 1.0000
64.4400 7844.0000 1.0000
64.4600 7635.0000 1.0000
64.4800 7815.0000 1.0000
64.5000 7669.0000 1.0000
64.5200 7690.0000 1.0000
64.5400 7662.0000 1.0000
64.5600 7686.0000 1.0000
64.5800 7522.0000 1.0000
64.6000 7709.0000 1.0000
64.6200 7413.0000 1.0000
64.6400 7544.0000 1.0000
64.6600 7683.0000 1.0000
64.6800 7632.0000 1.0000
64.7000 7630.0000 1.0000
64.7200 7680.0000 1.0000
64.7400 7691.0000 1.0000
64.7600 7531.0000 1.0000
64.7800 7706.0000 1.0000
64.8000 7632.0000 1.0000
64.8200 7461.0000 1.0000
64.8400 7600.0000 1.0000
64.8600 7474.0000 1.0000
64.8800 7449.0000 1.0000
64.9000 7570.0000 1.0000
64.9200 7653.0000 1.0000
64.9400 7510.0000 1.0000
64.9600 7559.0000 1.0000
64.9800 7639.0000 1.0000
65.0000 7500.0000 1.0000
65.0200 7595.0000 1.0000
65.0400 7628.0000 1.0000
65.0600 7617.0000 1.0000
65.0800 7539.0000 1.0000
65.1000 7578.0000 1.0000
65.1200 7493.0000 1.0000
65.1400 7736.0000 1.0000
65.1600 7606.0000 1.0000
65.1800 7608.0000 1.0000
65.2000 7609.0000 1.0000
65.2200 7572.0000 1.0000
65.2400 7490.0000 1.0000
65.2600 7701.0000 1.0000
65.2800 7563.0000 1.0000
65.3000 7530.0000 1.0000
65.3200 7593.0000 1.0000
65.3400 7619.0000 1.0000
65.3600 7573.0000 1.0000
65.3800 7585.0000 1.0000
65.4000 7708.0000 1.0000
65.4200 7513.0000 1.0000
65.4400 7656.0000 1.0000
65.4600 7563.0000 1.0000
65.4800 7592.0000 1.0000
65.5000 7546.0000 1.0000
65.5200 7568.0000 1.0000
65.5400 7615.0000 1.0000
65.5600 7637.0000 1.0000
65.5800 7661.0000 1.0000
65.6000 7735.0000 1.0000
65.6200 7706.0000 1.0000
65.6400 7651.0000 1.0000
65.6600 7546.0000 1.0000
65.6800 7604.0000 1.0000
65.7000 7670.0000 1.0000
65.7200 7808.0000 1.0000
65.7400 7801.0000 1.0000
65.7600 7904.0000 1.0000
65.7800 8230.0000 1.0000
65.8000 8209.0000 1.0000
65.8200 8097.0000 1.0000
65.8400 7987.0000 1.0000
65.8600 7847.0000 1.0000
65.8800 7690.0000 1.0000
65.9000 7779.0000 1.0000
65.9200 7690.0000 1.0000
65.9400 7732.0000 1.0000
65.9600 7868.0000 1.0000
65.9800 7939.0000 1.0000
66.0000 7907.0000 1.0000
66.0200 7701.0000 1.0000
66.0400 7740.0000 1.0000
66.0600 7721.0000 1.0000
66.0800 7740.0000 1.0000
66.1000 7798.0000 1.0000
66.1200 7731.0000 1.0000
66.1400 7610.0000 1.0000
66.1600 7568.0000 1.0000
66.1800 7801.0000 1.0000
66.2000 7522.0000 1.0000
66.2200 7749.0000 1.0000
66.2400 7552.0000 1.0000
66.2600 7576.0000 1.0000
66.2800 7736.0000 1.0000
66.3000 7683.0000 1.0000
66.3200 7634.0000 1.0000
66.3400 7647.0000 1.0000
66.3600 7702.0000 1.0000
66.3800 7846.0000 1.0000
66.4000 7724.0000 1.0000
66.4200 7807.0000 1.0000
66.4400 8082.0000 1.0000
66.4600 8062.0000 1.0000
66.4800 8303.0000 1.0000
66.5000 8216.0000 1.0000
66.5200 8366.0000 1.0000
66.5400 8292.0000 1.0000
66.5600 8170.0000 1.0000
66.5800 8053.0000 1.0000
66.6000 7928.0000 1.0000
66.6200 7944.0000 1.0000
66.6400 8072.0000 1.0000
66.6600 8098.0000 1.0000
66.6800 8086.0000 1.0000
66.7000 8129.0000 1.0000
66.7200 7988.0000 1.0000
66.7400 7917.0000 1.0000
66.7600 7892.0000 1.0000
66.7800 7757.0000 1.0000
66.8000 7737.0000 1.0000
66.8200 7781.0000 1.0000
66.8400 7564.0000 1.0000
66.8600 7658.0000 1.0000
66.8800 7730.0000 1.0000
66.9000 7650.0000 1.0000
66.9200 7717.0000 1.0000
66.9400 7651.0000 1.0000
66.9600 7703.0000 1.0000
66.9800 7541.0000 1.0000
67.0000 7611.0000 1.0000
67.0200 7645.0000 1.0000
67.0400 7600.0000 1.0000
67.0600 7647.0000 1.0000
67.0800 7665.0000 1.0000
67.1000 7682.0000 1.0000
67.1200 7554.0000 1.0000
67.1400 7483.0000 1.0000
67.1600 7551.0000 1.0000
67.1800 7668.0000 1.0000
67.2000 7697.0000 1.0000
67.2200 7651.0000 1.0000
67.2400 7597.0000 1.0000
67.2600 7608.0000 1.0000
67.2800 7649.0000 1.0000
67.3000 7709.0000 1.0000
67.3200 7608.0000 1.0000
67.3400 7837.0000 1.0000
67.3600 7554.0000 1.0000
67.3800 7700.0000 1.0000
67.4000 7793.0000 1.0000
67.4200 7681.0000 1.0000
67.4400 7766.0000 1.0000
67.4600 7615.0000 1.0000
67.4800 7833.0000 1.0000
67.5000 7776.0000 1.0000
67.5200 7757.0000 1.0000
67.5400 7700.0000 1.0000
67.5600 7983.0000 1.0000
67.5800 7892.0000 1.0000
67.6000 7878.0000 1.0000
67.6200 8192.0000 1.0000
67.6400 8151.0000 1.0000
67.6600 8534.0000 1.0000
67.6800 9482.0000 1.0000
67.7000 10219.0000 1.0000
67.7200 11593.0000 1.0000
67.7400 12531.0000 1.0000
67.7600 11454.0000 1.0000
67.7800 10114.0000 1.0000
67.8000 9090.0000 1.0000
67.8200 8625.0000 1.0000
67.8400 8718.0000 1.0000
67.8600 8753.0000 1.0000
67.8800 9103.0000 1.0000
67.9000 9624.0000 1.0000
67.9200 10155.0000 1.0000
67.9400 10182.0000 1.0000
67.9600 9756.0000 1.0000
67.9800 9025.0000 1.0000
68.0000 8678.0000 1.0000
68.0200 8495.0000 1.0000
68.0400 8763.0000 1.0000
68.0600 9049.0000 1.0000
68.0800 9769.0000 1.0000
68.1000 11080.0000 1.0000
68.1200 13047.0000 1.0000
68.1400 15330.0000 1.0000
68.1600 14318.0000 1.0000
68.1800 12104.0000 1.0000
68.2000 10984.0000 1.0000
68.2200 10201.0000 1.0000
68.2400 10237.0000 1.0000
68.2600 10509.0000 1.0000
68.2800 11395.0000 1.0000
68.3000 12772.0000 1.0000
68.3200 13682.0000 1.0000
68.3400 12971.0000 1.0000
68.3600 11346.0000 1.0000
68.3800 10149.0000 1.0000
68.4000 9353.0000 1.0000
68.4200 8990.0000 1.0000
68.4400 9038.0000 1.0000
68.4600 9040.0000 1.0000
68.4800 9336.0000 1.0000
68.5000 9328.0000 1.0000
68.5200 9016.0000 1.0000
68.5400 8775.0000 1.0000
68.5600 8171.0000 1.0000
68.5800 7949.0000 1.0000
68.6000 7897.0000 1.0000
68.6200 7885.0000 1.0000
68.6400 7861.0000 1.0000
68.6600 7838.0000 1.0000
68.6800 7783.0000 1.0000
68.7000 7799.0000 1.0000
68.7200 7675.0000 1.0000
68.7400 7636.0000 1.0000
68.7600 7802.0000 1.0000
68.7800 7642.0000 1.0000
68.8000 7723.0000 1.0000
68.8200 7693.0000 1.0000
68.8400 7575.0000 1.0000
68.8600 7545.0000 1.0000
68.8800 7689.0000 1.0000
68.9000 7542.0000 1.0000
68.9200 7689.0000 1.0000
68.9400 7678.0000 1.0000
68.9600 7557.0000 1.0000
68.9800 7721.0000 1.0000
69.0000 7699.0000 1.0000
69.0200 7786.0000 1.0000
69.0400 7721.0000 1.0000
69.0600 7606.0000 1.0000
69.0800 7749.0000 1.0000
69.1000 7429.0000 1.0000
69.1200 7622.0000 1.0000
69.1400 7516.0000 1.0000
69.1600 7605.0000 1.0000
69.1800 7558.0000 1.0000
69.2000 7489.0000 1.0000
69.2200 7671.0000 1.0000
69.2400 7581.0000 1.0000
69.2600 7712.0000 1.0000
69.2800 7766.0000 1.0000
69.3000 7707.0000 1.0000
69.3200 7649.0000 1.0000
69.3400 7645.0000 1.0000
69.3600 7489.0000 1.0000
69.3800 7775.0000 1.0000
69.4000 7601.0000 1.0000
69.4200 7755.0000 1.0000
69.4400 7604.0000 1.0000
69.4600 7686.0000 1.0000
69.4800 7651.0000 1.0000
69.5000 7601.0000 1.0000
69.5200 7769.0000 1.0000
69.5400 7627.0000 1.0000
69.5600 7838.0000 1.0000
69.5800 7895.0000 1.0000
69.6000 7883.0000 1.0000
69.6200 7840.0000 1.0000
69.6400 7791.0000 1.0000
69.6600 7688.0000 1.0000
69.6800 7780.0000 1.0000
69.7000 7821.0000 1.0000
69.7200 7700.0000 1.0000
69.7400 7915.0000 1.0000
69.7600 7959.0000 1.0000
69.7800 7797.0000 1.0000
69.8000 7810.0000 1.0000
69.8200 7917.0000 1.0000
69.8400 7750.0000 1.0000
69.8600 7779.0000 1.0000
69.8800 7525.0000 1.0000
69.9000 7740.0000 1.0000
69.9200 7625.0000 1.0000
69.9400 7670.0000 1.0000
69.9600 7706.0000 1.0000
69.9800 7613.0000 1.0000
70.0000 7667.0000 1.0000
70.0200 7612.0000 1.0000
70.0400 7587.0000 1.0000
70.0600 7515.0000 1.0000
70.0800 7586.0000 1.0000
70.1000 7570.0000 1.0000
70.1200 7650.0000 1.0000
70.1400 7649.0000 1.0000
70.1600 7654.0000 1.0000
70.1800 7479.0000 1.0000
70.2000 7551.0000 1.0000
70.2200 7712.0000 1.0000
70.2400 7629.0000 1.0000
70.2600 7742.0000 1.0000
70.2800 7472.0000 1.0000
70.3000 7686.0000 1.0000
70.3200 7665.0000 1.0000
70.3400 7491.0000 1.0000
70.3600 7508.0000 1.0000
70.3800 7568.0000 1.0000
70.4000 7661.0000 1.0000
70.4200 7650.0000 1.0000
70.4400 7379.0000 1.0000
70.4600 7670.0000 1.0000
70.4800 7722.0000 1.0000
70.5000 7557.0000 1.0000
70.5200 7732.0000 1.0000
70.5400 7495.0000 1.0000
70.5600 7542.0000 1.0000
70.5800 7607.0000 1.0000
70.6000 7578.0000 1.0000
70.6200 7587.0000 1.0000
70.6400 7566.0000 1.0000
70.6600 7710.0000 1.0000
70.6800 7714.0000 1.0000
70.7000 7480.0000 1.0000
70.7200 7710.0000 1.0000
70.7400 7543.0000 1.0000
70.7600 7642.0000 1.0000
70.7800 7557.0000 1.0000
70.8000 7559.0000 1.0000
70.8200 7611.0000 1.0000
70.8400 7585.0000 1.0000
70.8600 7652.0000 1.0000
70.8800 7583.0000 1.0000
70.9000 7607.0000 1.0000
70.9200 7562.0000 1.0000
70.9400 7582.0000 1.0000
70.9600 7684.0000 1.0000
70.9800 7774.0000 1.0000
71.0000 7721.0000 1.0000
71.0200 7695.0000 1.0000
71.0400 7614.0000 1.0000
71.0600 7635.0000 1.0000
71.0800 7685.0000 1.0000
71.1000 7594.0000 1.0000
71.1200 7505.0000 1.0000
71.1400 7664.0000 1.0000
71.1600 7664.0000 1.0000
71.1800 7705.0000 1.0000
71.2000 7723.0000 1.0000
71.2200 7505.0000 1.0000
71.2400 7643.0000 1.0000
71.2600 7720.0000 1.0000
71.2800 7655.0000 1.0000
71.3000 7673.0000 1.0000
71.3200 7677.0000 1.0000
71.3400 7563.0000 1.0000
71.3600 7636.0000 1.0000
71.3800 7604.0000 1.0000
71.4000 7666.0000 1.0000
71.4200 7520.0000 1.0000
71.4400 7703.0000 1.0000
71.4600 7484.0000 1.0000
71.4800 7739.0000 1.0000
71.5000 7750.0000 1.0000
71.5200 7608.0000 1.0000
71.5400 7635.0000 1.0000
71.5600 7501.0000 1.0000
71.5800 7834.0000 1.0000
71.6000 7557.0000 1.0000
71.6200 7658.0000 1.0000
71.6400 7599.0000 1.0000
71.6600 7641.0000 1.0000
71.6800 7645.0000 1.0000
71.7000 7723.0000 1.0000
71.7200 7731.0000 1.0000
71.7400 7745.0000 1.0000
71.7600 7733.0000 1.0000
71.7800 8007.0000 1.0000
71.8000 7862.0000 1.0000
71.8200 7923.0000 1.0000
71.8400 7988.0000 1.0000
71.8600 8212.0000 1.0000
71.8800 8288.0000 1.0000
71.9000 8544.0000 1.0000
71.9200 8659.0000 1.0000
71.9400 8938.0000 1.0000
71.9600 8881.0000 1.0000
71.9800 8760.0000 1.0000
72.0000 8426.0000 1.0000
72.0200 8364.0000 1.0000
72.0400 8161.0000 1.0000
72.0600 8126.0000 1.0000
72.0800 8034.0000 1.0000
72.1000 8188.0000 1.0000
72.1200 8229.0000 1.0000
72.1400 8236.0000 1.0000
72.1600 8286.0000 1.0000
72.1800 8237.0000 1.0000
72.2000 8122.0000 1.0000
72.2200 8132.0000 1.0000
72.2400 8027.0000 1.0000
72.2600 7981.0000 1.0000
72.2800 7980.0000 1.0000
72.3000 8066.0000 1.0000
72.3200 7851.0000 1.0000
72.3400 7663.0000 1.0000
72.3600 7758.0000 1.0000
72.3800 7752.0000 1.0000
72.4000 7611.0000 1.0000
72.4200 7734.0000 1.0000
72.4400 7676.0000 1.0000
72.4600 7623.0000 1.0000
72.4800 7692.0000 1.0000
72.5000 7704.0000 1.0000
72.5200 7760.0000 1.0000
72.5400 7511.0000 1.0000
72.5600 7685.0000 1.0000
72.5800 7623.0000 1.0000
72.6000 7579.0000 1.0000
72.6200 7502.0000 1.0000
72.6400 7582.0000 1.0000
72.6600 7713.0000 1.0000
72.6800 7727.0000 1.0000
72.7000 7712.0000 1.0000
72.7200 7496.0000 1.0000
72.7400 7587.0000 1.0000
72.7600 7573.0000 1.0000
72.7800 7579.0000 1.0000
72.8000 7589.0000 1.0000
72.8200 7658.0000 1.0000
72.8400 7795.0000 1.0000
72.8600 7545.0000 1.0000
72.8800 7583.0000 1.0000
72.9000 7628.0000 1.0000
72.9200 7641.0000 1.0000
72.9400 7614.0000 1.0000
72.9600 7646.0000 1.0000
72.9800 7604.0000 1.0000
73.0000 7521.0000 1.0000
73.0200 7477.0000 1.0000
73.0400 7603.0000 1.0000
73.0600 7654.0000 1.0000
73.0800 7750.0000 1.0000
73.1000 7670.0000 1.0000
73.1200 7590.0000 1.0000
73.1400 7611.0000 1.0000
73.1600 7710.0000 1.0000
73.1800 7615.0000 1.0000
73.2000 7580.0000 1.0000
73.2200 7663.0000 1.0000
73.2400 7646.0000 1.0000
73.2600 7701.0000 1.0000
73.2800 7715.0000 1.0000
73.3000 7646.0000 1.0000
73.3200 7519.0000 1.0000
73.3400 7599.0000 1.0000
73.3600 7682.0000 1.0000
73.3800 7829.0000 1.0000
73.4000 7969.0000 1.0000
73.4200 8067.0000 1.0000
73.4400 8728.0000 1.0000
73.4600 8983.0000 1.0000
73.4800 9050.0000 1.0000
73.5000 8657.0000 1.0000
73.5200 8072.0000 1.0000
73.5400 7981.0000 1.0000
73.5600 7870.0000 1.0000
73.5800 7778.0000 1.0000
73.6000 7775.0000 1.0000
73.6200 8057.0000 1.0000
73.6400 8047.0000 1.0000
73.6600 8194.0000 1.0000
73.6800 8373.0000 1.0000
73.7000 8279.0000 1.0000
73.7200 8190.0000 1.0000
73.7400 7953.0000 1.0000
73.7600 7685.0000 1.0000
73.7800 7742.0000 1.0000
73.8000 7743.0000 1.0000
73.8200 7823.0000 1.0000
73.8400 7588.0000 1.0000
73.8600 7696.0000 1.0000
73.8800 7562.0000 1.0000
73.9000 7769.0000 1.0000
73.9200 7644.0000 1.0000
73.9400 7758.0000 1.0000
73.9600 7707.0000 1.0000
73.9800 7774.0000 1.0000
74.0000 7637.0000 1.0000
74.0200 7518.0000 1.0000
74.0400 7823.0000 1.0000
74.0600 7783.0000 1.0000
74.0800 7705.0000 1.0000
74.1000 7714.0000 1.0000
74.1200 7625.0000 1.0000
74.1400 7719.0000 1.0000
74.1600 7856.0000 1.0000
74.1800 7732.0000 1.0000
74.2000 7735.0000 1.0000
74.2200 7727.0000 1.0000
74.2400 7791.0000 1.0000
74.2600 7832.0000 1.0000
74.2800 7708.0000 1.0000
74.3000 7609.0000 1.0000
74.3200 7794.0000 1.0000
74.3400 7720.0000 1.0000
74.3600 7706.0000 1.0000
74.3800 7782.0000 1.0000
74.4000 7602.0000 1.0000
74.4200 7608.0000 1.0000
74.4400 7654.0000 1.0000
74.4600 7675.0000 1.0000
74.4800 7517.0000 1.0000
74.5000 7470.0000 1.0000
74.5200 7618.0000 1.0000
74.5400 7677.0000 1.0000
74.5600 7503.0000 1.0000
74.5800 7468.0000 1.0000
74.6000 7645.0000 1.0000
74.6200 7596.0000 1.0000
74.6400 7541.0000 1.0000
74.6600 7513.0000 1.0000
74.6800 7658.0000 1.0000
74.7000 7767.0000 1.0000
74.7200 7750.0000 1.0000
74.7400 7587.0000 1.0000
74.7600 7500.0000 1.0000
74.7800 7543.0000 1.0000
74.8000 7646.0000 1.0000
74.8200 7563.0000 1.0000
74.8400 7648.0000 1.0000
74.8600 7640.0000 1.0000
74.8800 7581.0000 1.0000
74.9000 7572.0000 1.0000
74.9200 7673.0000 1.0000
74.9400 7473.0000 1.0000
74.9600 7697.0000 1.0000
74.9800 7569.0000 1.0000
75.0000 7583.0000 1.0000
75.0200 7545.0000 1.0000
75.0400 7743.0000 1.0000
75.0600 7554.0000 1.0000
75.0800 7569.0000 1.0000
75.1000 7825.0000 1.0000
75.1200 7633.0000 1.0000
75.1400 7679.0000 1.0000
75.1600 7662.0000 1.0000
75.1800 7703.0000 1.0000
75.2000 7716.0000 1.0000
75.2200 7701.0000 1.0000
75.2400 7763.0000 1.0000
75.2600 7741.0000 1.0000
75.2800 7691.0000 1.0000
75.3000 7723.0000 1.0000
75.3200 7836.0000 1.0000
75.3400 8018.0000 1.0000
75.3600 8106.0000 1.0000
75.3800 8022.0000 1.0000
75.4000 8201.0000 1.0000
75.4200 8566.0000 1.0000
75.4400 8604.0000 1.0000
75.4600 8633.0000 1.0000
75.4800 8335.0000 1.0000
75.5000 8304.0000 1.0000
75.5200 8173.0000 1.0000
75.5400 8298.0000 1.0000
75.5600 8268.0000 1.0000
75.5800 8493.0000 1.0000
75.6000 9043.0000 1.0000
75.6200 9762.0000 1.0000
75.6400 10517.0000 1.0000
75.6600 11127.0000 1.0000
75.6800 10679.0000 1.0000
75.7000 9567.0000 1.0000
75.7200 8714.0000 1.0000
75.7400 8310.0000 1.0000
75.7600 8163.0000 1.0000
75.7800 8165.0000 1.0000
75.8000 8282.0000 1.0000
75.8200 8156.0000 1.0000
75.8400 8505.0000 1.0000
75.8600 9028.0000 1.0000
75.8800 9079.0000 1.0000
75.9000 8927.0000 1.0000
75.9200 8394.0000 1.0000
75.9400 8029.0000 1.0000
75.9600 7787.0000 1.0000
75.9800 7728.0000 1.0000
76.0000 7887.0000 1.0000
76.0200 7765.0000 1.0000
76.0400 7757.0000 1.0000
76.0600 7547.0000 1.0000
76.0800 7659.0000 1.0000
76.1000 7605.0000 1.0000
76.1200 7717.0000 1.0000
76.1400 7513.0000 1.0000
76.1600 7551.0000 1.0000
76.1800 7630.0000 1.0000
76.2000 7705.0000 1.0000
76.2200 7601.0000 1.0000
76.2400 7616.0000 1.0000
76.2600 7649.0000 1.0000
76.2800 7561.0000 1.0000
76.3000 7694.0000 1.0000
76.3200 7708.0000 1.0000
76.3400 7527.0000 1.0000
76.3600 7678.0000 1.0000
76.3800 7669.0000 1.0000
76.4000 7635.0000 1.0000
76.4200 7546.0000 1.0000
76.4400 7606.0000 1.0000
76.4600 7494.0000 1.0000
76.4800 7422.0000 1.0000
76.5000 7681.0000 1.0000
76.5200 7500.0000 1.0000
76.5400 7729.0000 1.0000
76.5600 7734.0000 1.0000
76.5800 7639.0000 1.0000
76.6000 7555.0000 1.0000
76.6200 7702.0000 1.0000
76.6400 7638.0000 1.0000
76.6600 7632.0000 1.0000
76.6800 7588.0000 1.0000
76.7000 7699.0000 1.0000
76.7200 7784.0000 1.0000
76.7400 7664.0000 1.0000
76.7600 7707.0000 1.0000
76.7800 7974.0000 1.0000
76.8000 7851.0000 1.0000
76.8200 7823.0000 1.0000
76.8400 7798.0000 1.0000
76.8600 8045.0000 1.0000
76.8800 7895.0000 1.0000
76.9000 7910.0000 1.0000
76.9200 7898.0000 1.0000
76.9400 7863.0000 1.0000
76.9600 7844.0000 1.0000
76.9800 7762.0000 1.0000
77.0000 7791.0000 1.0000
77.0200 7860.0000 1.0000
77.0400 7806.0000 1.0000
77.0600 7776.0000 1.0000
77.0800 7770.0000 1.0000
77.1000 7837.0000 1.0000
77.1200 7751.0000 1.0000
77.1400 7814.0000 1.0000
77.1600 7705.0000 1.0000
77.1800 7833.0000 1.0000
77.2000 7987.0000 1.0000
77.2200 7770.0000 1.0000
77.2400 7787.0000 1.0000
77.2600 7903.0000 1.0000
77.2800 7959.0000 1.0000
77.3000 7775.0000 1.0000
77.3200 7794.0000 1.0000
77.3400 7761.0000 1.0000
77.3600 7713.0000 1.0000
77.3800 7725.0000 1.0000
77.4000 7660.0000 1.0000
77.4200 7784.0000 1.0000
77.4400 7824.0000 1.0000
77.4600 7883.0000 1.0000
77.4800 7962.0000 1.0000
77.5000 7865.0000 1.0000
77.5200 7885.0000 1.0000
77.5400 7812.0000 1.0000
77.5600 7917.0000 1.0000
77.5800 8073.0000 1.0000
77.6000 8348.0000 1.0000
77.6200 8876.0000 1.0000
77.6400 9779.0000 1.0000
77.6600 10105.0000 1.0000
77.6800 9678.0000 1.0000
77.7000 9154.0000 1.0000
77.7200 8642.0000 1.0000
77.7400 8301.0000 1.0000
77.7600 8392.0000 1.0000
77.7800 8209.0000 1.0000
77.8000 7961.0000 1.0000
77.8200 8072.0000 1.0000
77.8400 8309.0000 1.0000
77.8600 8633.0000 1.0000
77.8800 8930.0000 1.0000
77.9000 8753.0000 1.0000
77.9200 8352.0000 1.0000
77.9400 8136.0000 1.0000
77.9600 8072.0000 1.0000
77.9800 7905.0000 1.0000
78.0000 7852.0000 1.0000
78.0200 7922.0000 1.0000
78.0400 7811.0000 1.0000
78.0600 7674.0000 1.0000
78.0800 7826.0000 1.0000
78.1000 7675.0000 1.0000
78.1200 7590.0000 1.0000
78.1400 7727.0000 1.0000
78.1600 7649.0000 1.0000
78.1800 7548.0000 1.0000
78.2000 7650.0000 1.0000
78.2200 7544.0000 1.0000
78.2400 7725.0000 1.0000
78.2600 7829.0000 1.0000
78.2800 7484.0000 1.0000
78.3000 7679.0000 1.0000
78.3200 7463.0000 1.0000
78.3400 7682.0000 1.0000
78.3600 7543.0000 1.0000
78.3800 7582.0000 1.0000
78.4000 7800.0000 1.0000
78.4200 7588.0000 1.0000
78.4400 7449.0000 1.0000
78.4600 7684.0000 1.0000
78.4800 7680.0000 1.0000
78.5000 7648.0000 1.0000
78.5200 7787.0000 1.0000
78.5400 7611.0000 1.0000
78.5600 7492.0000 1.0000
78.5800 7616.0000 1.0000
78.6000 7559.0000 1.0000
78.6200 7555.0000 1.0000
78.6400 7635.0000 1.0000
78.6600 7650.0000 1.0000
78.6800 7837.0000 1.0000
78.7000 7540.0000 1.0000
78.7200 7589.0000 1.0000
78.7400 7735.0000 1.0000
78.7600 7684.0000 1.0000
78.7800 7821.0000 1.0000
78.8000 7666.0000 1.0000
78.8200 7666.0000 1.0000
78.8400 7733.0000 1.0000
78.8600 7618.0000 1.0000
78.8800 7708.0000 1.0000
78.9000 7692.0000 1.0000
78.9200 7415.0000 1.0000
78.9400 7649.0000 1.0000
78.9600 7667.0000 1.0000
78.9800 7653.0000 1.0000
79.0000 7826.0000 1.0000
79.0200 7780.0000 1.0000
79.0400 7570.0000 1.0000
79.0600 7525.0000 1.0000
79.0800 7780.0000 1.0000
79.1000 7700.0000 1.0000
79.1200 7487.0000 1.0000
79.1400 7632.0000 1.0000
79.1600 7720.0000 1.0000
79.1800 7710.0000 1.0000
79.2000 7588.0000 1.0000
79.2200 7612.0000 1.0000
79.2400 7535.0000 1.0000
79.2600 7765.0000 1.0000
79.2800 7564.0000 1.0000
79.3000 7650.0000 1.0000
79.3200 7668.0000 1.0000
79.3400 7696.0000 1.0000
79.3600 7629.0000 1.0000
79.3800 7540.0000 1.0000
79.4000 7656.0000 1.0000
79.4200 7693.0000 1.0000
79.4400 7575.0000 1.0000
79.4600 7555.0000 1.0000
79.4800 7646.0000 1.0000
79.5000 7672.0000 1.0000
79.5200 7651.0000 1.0000
79.5400 7613.0000 1.0000
79.5600 7534.0000 1.0000
79.5800 7673.0000 1.0000
79.6000 7916.0000 1.0000
79.6200 7801.0000 1.0000
79.6400 7750.0000 1.0000
79.6600 7888.0000 1.0000
79.6800 7526.0000 1.0000
79.7000 7727.0000 1.0000
79.7200 7727.0000 1.0000
79.7400 7945.0000 1.0000
79.7600 7795.0000 1.0000
79.7800 8015.0000 1.0000
79.8000 8143.0000 1.0000
79.8200 8553.0000 1.0000
79.8400 9008.0000 1.0000
79.8600 9733.0000 1.0000
79.8800 10051.0000 1.0000
79.9000 9382.0000 1.0000
79.9200 8665.0000 1.0000
79.9400 8463.0000 1.0000
79.9600 8246.0000 1.0000
79.9800 8163.0000 1.0000
80.0000 8472.0000 1.0000
80.0200 8691.0000 1.0000
80.0400 8612.0000 1.0000
80.0600 8832.0000 1.0000
80.0800 8750.0000 1.0000
80.1000 8797.0000 1.0000
80.1200 8921.0000 1.0000
80.1400 8686.0000 1.0000
80.1600 8451.0000 1.0000
80.1800 8079.0000 1.0000
80.2000 8052.0000 1.0000
80.2200 8097.0000 1.0000
80.2400 8001.0000 1.0000
80.2600 8085.0000 1.0000
80.2800 8116.0000 1.0000
80.3000 8055.0000 1.0000
80.3200 7925.0000 1.0000
80.3400 7853.0000 1.0000
80.3600 7756.0000 1.0000
80.3800 7691.0000 1.0000
80.4000 7844.0000 1.0000
80.4200 7796.0000 1.0000
80.4400 7817.0000 1.0000
80.4600 7552.0000 1.0000
80.4800 7757.0000 1.0000
80.5000 7604.0000 1.0000
80.5200 7808.0000 1.0000
80.5400 8144.0000 1.0000
80.5600 7881.0000 1.0000
80.5800 8054.0000 1.0000
80.6000 8021.0000 1.0000
80.6200 8087.0000 1.0000
80.6400 8238.0000 1.0000
80.6600 8102.0000 1.0000
80.6800 8256.0000 1.0000
80.7000 8249.0000 1.0000
80.7200 8417.0000 1.0000
80.7400 8202.0000 1.0000
80.7600 8072.0000 1.0000
80.7800 8036.0000 1.0000
80.8000 7987.0000 1.0000
80.8200 7957.0000 1.0000
80.8400 7832.0000 1.0000
80.8600 7897.0000 1.0000
80.8800 7918.0000 1.0000
80.9000 8032.0000 1.0000
80.9200 8089.0000 1.0000
80.9400 8012.0000 1.0000
80.9600 8096.0000 1.0000
80.9800 8016.0000 1.0000
81.0000 8082.0000 1.0000
81.0200 7966.0000 1.0000
81.0400 7929.0000 1.0000
81.0600 7982.0000 1.0000
81.0800 8049.0000 1.0000
81.1000 8233.0000 1.0000
81.1200 8564.0000 1.0000
81.1400 9056.0000 1.0000
81.1600 9489.0000 1.0000
81.1800 9264.0000 1.0000
81.2000 8825.0000 1.0000
81.2200 8065.0000 1.0000
81.2400 8191.0000 1.0000
81.2600 8045.0000 1.0000
81.2800 8031.0000 1.0000
81.3000 8009.0000 1.0000
81.3200 8219.0000 1.0000
81.3400 8249.0000 1.0000
81.3600 8422.0000 1.0000
81.3800 8578.0000 1.0000
81.4000 9065.0000 1.0000
81.4200 9392.0000 1.0000
81.4400 9790.0000 1.0000
81.4600 10134.0000 1.0000
81.4800 10460.0000 1.0000
81.5000 9783.0000 1.0000
81.5200 8923.0000 1.0000
81.5400 8461.0000 1.0000
81.5600 8304.0000 1.0000
81.5800 8028.0000 1.0000
81.6000 8098.0000 1.0000
81.6200 7962.0000 1.0000
81.6400 8097.0000 1.0000
81.6600 7990.0000 1.0000
81.6800 8148.0000 1.0000
81.7000 8690.0000 1.0000
81.7200 8909.0000 1.0000
81.7400 8710.0000 1.0000
81.7600 8474.0000 1.0000
81.7800 8049.0000 1.0000
81.8000 8023.0000 1.0000
81.8200 7900.0000 1.0000
81.8400 7906.0000 1.0000
81.8600 7622.0000 1.0000
81.8800 7593.0000 1.0000
81.9000 7597.0000 1.0000
81.9200 7806.0000 1.0000
81.9400 7692.0000 1.0000
81.9600 7611.0000 1.0000
81.9800 7597.0000 1.0000
82.0000 7612.0000 1.0000
82.0200 7403.0000 1.0000
82.0400 7637.0000 1.0000
82.0600 7649.0000 1.0000
82.0800 7721.0000 1.0000
82.1000 7543.0000 1.0000
82.1200 7638.0000 1.0000
82.1400 7694.0000 1.0000
82.1600 7635.0000 1.0000
82.1800 7480.0000 1.0000
82.2000 7651.0000 1.0000
82.2200 7550.0000 1.0000
82.2400 7664.0000 1.0000
82.2600 7622.0000 1.0000
82.2800 7509.0000 1.0000
82.3000 7779.0000 1.0000
82.3200 7641.0000 1.0000
82.3400 7630.0000 1.0000
82.3600 7618.0000 1.0000
82.3800 7744.0000 1.0000
82.4000 7767.0000 1.0000
82.4200 7519.0000 1.0000
82.4400 7541.0000 1.0000
82.4600 7730.0000 1.0000
82.4800 7599.0000 1.0000
82.5000 7550.0000 1.0000
82.5200 7618.0000 1.0000
82.5400 7640.0000 1.0000
82.5600 7595.0000 1.0000
82.5800 7459.0000 1.0000
82.6000 7589.0000 1.0000
82.6200 7514.0000 1.0000
82.6400 7737.0000 1.0000
82.6600 7650.0000 1.0000
82.6800 7726.0000 1.0000
82.7000 7582.0000 1.0000
82.7200 7659.0000 1.0000
82.7400 7602.0000 1.0000
82.7600 7848.0000 1.0000
82.7800 7647.0000 1.0000
82.8000 7514.0000 1.0000
82.8200 7845.0000 1.0000
82.8400 7847.0000 1.0000
82.8600 7817.0000 1.0000
82.8800 7913.0000 1.0000
82.9000 8120.0000 1.0000
82.9200 8290.0000 1.0000
82.9400 8188.0000 1.0000
82.9600 8130.0000 1.0000
82.9800 7998.0000 1.0000
83.0000 8161.0000 1.0000
83.0200 7960.0000 1.0000
83.0400 7850.0000 1.0000
83.0600 7789.0000 1.0000
83.0800 7788.0000 1.0000
83.1000 7759.0000 1.0000
83.1200 7895.0000 1.0000
83.1400 7840.0000 1.0000
83.1600 7931.0000 1.0000
83.1800 7871.0000 1.0000
83.2000 8061.0000 1.0000
83.2200 7944.0000 1.0000
83.2400 7941.0000 1.0000
83.2600 7788.0000 1.0000
83.2800 7593.0000 1.0000
83.3000 7752.0000 1.0000
83.3200 7882.0000 1.0000
83.3400 7826.0000 1.0000
83.3600 7701.0000 1.0000
83.3800 7674.0000 1.0000
83.4000 7591.0000 1.0000
83.4200 7708.0000 1.0000
83.4400 7620.0000 1.0000
83.4600 7502.0000 1.0000
83.4800 7597.0000 1.0000
83.5000 7619.0000 1.0000
83.5200 7674.0000 1.0000
83.5400 7693.0000 1.0000
83.5600 7697.0000 1.0000
83.5800 7712.0000 1.0000
83.6000 7623.0000 1.0000
83.6200 7696.0000 1.0000
83.6400 7583.0000 1.0000
83.6600 7642.0000 1.0000
83.6800 7744.0000 1.0000
83.7000 7747.0000 1.0000
83.7200 7712.0000 1.0000
83.7400 7691.0000 1.0000
83.7600 8146.0000 1.0000
83.7800 8394.0000 1.0000
83.8000 8544.0000 1.0000
83.8200 8939.0000 1.0000
83.8400 8683.0000 1.0000
83.8600 8475.0000 1.0000
83.8800 8201.0000 1.0000
83.9000 7843.0000 1.0000
83.9200 7819.0000 1.0000
83.9400 7879.0000 1.0000
83.9600 7859.0000 1.0000
83.9800 7735.0000 1.0000
84.0000 7758.0000 1.0000
84.0200 7687.0000 1.0000
84.0400 8007.0000 1.0000
84.0600 8258.0000 1.0000
84.0800 8275.0000 1.0000
84.1000 8247.0000 1.0000
84.1200 8029.0000 1.0000
84.1400 7906.0000 1.0000
84.1600 7791.0000 1.0000
84.1800 7790.0000 1.0000
84.2000 7780.0000 1.0000
84.2200 7584.0000 1.0000
84.2400 7754.0000 1.0000
84.2600 7596.0000 1.0000
84.2800 7730.0000 1.0000
84.3000 7823.0000 1.0000
84.3200 7705.0000 1.0000
84.3400 7747.0000 1.0000
84.3600 7638.0000 1.0000
84.3800 7692.0000 1.0000
84.4000 7662.0000 1.0000
84.4200 7714.0000 1.0000
84.4400 7591.0000 1.0000
84.4600 7519.0000 1.0000
84.4800 7714.0000 1.0000
84.5000 7763.0000 1.0000
84.5200 7551.0000 1.0000
84.5400 7748.0000 1.0000
84.5600 7683.0000 1.0000
84.5800 7760.0000 1.0000
84.6000 7737.0000 1.0000
84.6200 7768.0000 1.0000
84.6400 7762.0000 1.0000
84.6600 7564.0000 1.0000
84.6800 7751.0000 1.0000
84.7000 7839.0000 1.0000
84.7200 7822.0000 1.0000
84.7400 7915.0000 1.0000
84.7600 7839.0000 1.0000
84.7800 7747.0000 1.0000
84.8000 7842.0000 1.0000
84.8200 7923.0000 1.0000
84.8400 8143.0000 1.0000
84.8600 8100.0000 1.0000
84.8800 8377.0000 1.0000
84.9000 8521.0000 1.0000
84.9200 8661.0000 1.0000
84.9400 8721.0000 1.0000
84.9600 8736.0000 1.0000
84.9800 8331.0000 1.0000
85.0000 8281.0000 1.0000
85.0200 8122.0000 1.0000
85.0400 8060.0000 1.0000
85.0600 7855.0000 1.0000
85.0800 7899.0000 1.0000
85.1000 7826.0000 1.0000
85.1200 8007.0000 1.0000
85.1400 7971.0000 1.0000
85.1600 8061.0000 1.0000
85.1800 8144.0000 1.0000
85.2000 8114.0000 1.0000
85.2200 8047.0000 1.0000
85.2400 8002.0000 1.0000
85.2600 7827.0000 1.0000
85.2800 8021.0000 1.0000
85.3000 7603.0000 1.0000
85.3200 7764.0000 1.0000
85.3400 7772.0000 1.0000
85.3600 7649.0000 1.0000
85.3800 7904.0000 1.0000
85.4000 7732.0000 1.0000
85.4200 7639.0000 1.0000
85.4400 7597.0000 1.0000
85.4600 7662.0000 1.0000
85.4800 7585.0000 1.0000
85.5000 7649.0000 1.0000
85.5200 7618.0000 1.0000
85.5400 7606.0000 1.0000
85.5600 7534.0000 1.0000
85.5800 7819.0000 1.0000
85.6000 7710.0000 1.0000
85.6200 7636.0000 1.0000
85.6400 7641.0000 1.0000
85.6600 7653.0000 1.0000
85.6800 7535.0000 1.0000
85.7000 7550.0000 1.0000
85.7200 7542.0000 1.0000
85.7400 7513.0000 1.0000
85.7600 7469.0000 1.0000
85.7800 7627.0000 1.0000
85.8000 7892.0000 1.0000
85.8200 7519.0000 1.0000
85.8400 7524.0000 1.0000
85.8600 7645.0000 1.0000
85.8800 7746.0000 1.0000
85.9000 7625.0000 1.0000
85.9200 7483.0000 1.0000
85.9400 7546.0000 1.0000
85.9600 7603.0000 1.0000
85.9800 7650.0000 1.0000
86.0000 7531.0000 1.0000
86.0200 7497.0000 1.0000
86.0400 7725.0000 1.0000
86.0600 7711.0000 1.0000
86.0800 7615.0000 1.0000
86.1000 7608.0000 1.0000
86.1200 7629.0000 1.0000
86.1400 7569.0000 1.0000
86.1600 7679.0000 1.0000
86.1800 7658.0000 1.0000
86.2000 7733.0000 1.0000
86.2200 7631.0000 1.0000
86.2400 7590.0000 1.0000
86.2600 7644.0000 1.0000
86.2800 7724.0000 1.0000
86.3000 7664.0000 1.0000
86.3200 7750.0000 1.0000
86.3400 7789.0000 1.0000
86.3600 7735.0000 1.0000
86.3800 7646.0000 1.0000
86.4000 7718.0000 1.0000
86.4200 7730.0000 1.0000
86.4400 7629.0000 1.0000
86.4600 7702.0000 1.0000
86.4800 7755.0000 1.0000
86.5000 7635.0000 1.0000
86.5200 7683.0000 1.0000
86.5400 7741.0000 1.0000
86.5600 7551.0000 1.0000
86.5800 7667.0000 1.0000
86.6000 7582.0000 1.0000
86.6200 7498.0000 1.0000
86.6400 7749.0000 1.0000
86.6600 7645.0000 1.0000
86.6800 7636.0000 1.0000
86.7000 7660.0000 1.0000
86.7200 7699.0000 1.0000
86.7400 7638.0000 1.0000
86.7600 7695.0000 1.0000
86.7800 7610.0000 1.0000
86.8000 7770.0000 1.0000
86.8200 7747.0000 1.0000
86.8400 7524.0000 1.0000
86.8600 7817.0000 1.0000
86.8800 7580.0000 1.0000
86.9000 7689.0000 1.0000
86.9200 7589.0000 1.0000
86.9400 7748.0000 1.0000
86.9600 7592.0000 1.0000
86.9800 7687.0000 1.0000
87.0000 7566.0000 1.0000
87.0200 7681.0000 1.0000
87.0400 7740.0000 1.0000
87.0600 7706.0000 1.0000
87.0800 7769.0000 1.0000
87.1000 7766.0000 1.0000
87.1200 7785.0000 1.0000
87.1400 7796.0000 1.0000
87.1600 7648.0000 1.0000
87.1800 7587.0000 1.0000
87.2000 7789.0000 1.0000
87.2200 7578.0000 1.0000
87.2400 7520.0000 1.0000
87.2600 7584.0000 1.0000
87.2800 7702.0000 1.0000
87.3000 7592.0000 1.0000
87.3200 7733.0000 1.0000
87.3400 7576.0000 1.0000
87.3600 7730.0000 1.0000
87.3800 7570.0000 1.0000
87.4000 7703.0000 1.0000
87.4200 7736.0000 1.0000
87.4400 7867.0000 1.0000
87.4600 7720.0000 1.0000
87.4800 7674.0000 1.0000
87.5000 7709.0000 1.0000
87.5200 7614.0000 1.0000
87.5400 7635.0000 1.0000
87.5600 7666.0000 1.0000
87.5800 7709.0000 1.0000
87.6000 7672.0000 1.0000
87.6200 7763.0000 1.0000
87.6400 7601.0000 1.0000
87.6600 7692.0000 1.0000
87.6800 7784.0000 1.0000
87.7000 7676.0000 1.0000
87.7200 7783.0000 1.0000
87.7400 7769.0000 1.0000
87.7600 7586.0000 1.0000
87.7800 7762.0000 1.0000
87.8000 7701.0000 1.0000
87.8200 7708.0000 1.0000
87.8400 7666.0000 1.0000
87.8600 7465.0000 1.0000
87.8800 7511.0000 1.0000
87.9000 7634.0000 1.0000
87.9200 7723.0000 1.0000
87.9400 7695.0000 1.0000
87.9600 7552.0000 1.0000
87.9800 7588.0000 1.0000
88.0000 7632.0000 1.0000
88.0200 7513.0000 1.0000
88.0400 7403.0000 1.0000
88.0600 7651.0000 1.0000
88.0800 7859.0000 1.0000
88.1000 7673.0000 1.0000
88.1200 7657.0000 1.0000
88.1400 7544.0000 1.0000
88.1600 7537.0000 1.0000
88.1800 7638.0000 1.0000
88.2000 7700.0000 1.0000
88.2200 7653.0000 1.0000
88.2400 7675.0000 1.0000
88.2600 7616.0000 1.0000
88.2800 7636.0000 1.0000
88.3000 7750.0000 1.0000
88.3200 7618.0000 1.0000
88.3400 7749.0000 1.0000
88.3600 7768.0000 1.0000
88.3800 7570.0000 1.0000
88.4000 7737.0000 1.0000
88.4200 7882.0000 1.0000
88.4400 7909.0000 1.0000
88.4600 8005.0000 1.0000
88.4800 7995.0000 1.0000
88.5000 8215.0000 1.0000
88.5200 8304.0000 1.0000
88.5400 8352.0000 1.0000
88.5600 8465.0000 1.0000
88.5800 8343.0000 1.0000
88.6000 8284.0000 1.0000
88.6200 8268.0000 1.0000
88.6400 8069.0000 1.0000
88.6600 7967.0000 1.0000
88.6800 7949.0000 1.0000
88.7000 7960.0000 1.0000
88.7200 7965.0000 1.0000
88.7400 7861.0000 1.0000
88.7600 7980.0000 1.0000
88.7800 8054.0000 1.0000
88.8000 8191.0000 1.0000
88.8200 8115.0000 1.0000
88.8400 8131.0000 1.0000
88.8600 8056.0000 1.0000
88.8800 8044.0000 1.0000
88.9000 7980.0000 1.0000
88.9200 7914.0000 1.0000
88.9400 7965.0000 1.0000
88.9600 7919.0000 1.0000
88.9800 7929.0000 1.0000
89.0000 7762.0000 1.0000
89.0200 7758.0000 1.0000
89.0400 7881.0000 1.0000
89.0600 7662.0000 1.0000
89.0800 7635.0000 1.0000
89.1000 7628.0000 1.0000
89.1200 7714.0000 1.0000
89.1400 7709.0000 1.0000
89.1600 7705.0000 1.0000
89.1800 7720.0000 1.0000
89.2000 7754.0000 1.0000
89.2200 7808.0000 1.0000
89.2400 7830.0000 1.0000
89.2600 7798.0000 1.0000
89.2800 7859.0000 1.0000
89.3000 7802.0000 1.0000
89.3200 7844.0000 1.0000
89.3400 7805.0000 1.0000
89.3600 7794.0000 1.0000
89.3800 7687.0000 1.0000
89.4000 7571.0000 1.0000
89.4200 7703.0000 1.0000
89.4400 7588.0000 1.0000
89.4600 7580.0000 1.0000
89.4800 7665.0000 1.0000
89.5000 7686.0000 1.0000
89.5200 7721.0000 1.0000
89.5400 7648.0000 1.0000
89.5600 7638.0000 1.0000
89.5800 7676.0000 1.0000
89.6000 7820.0000 1.0000
89.6200 7589.0000 1.0000
89.6400 7706.0000 1.0000
89.6600 7839.0000 1.0000
89.6800 7713.0000 1.0000
89.7000 7815.0000 1.0000
89.7200 7855.0000 1.0000
89.7400 7855.0000 1.0000
89.7600 7797.0000 1.0000
89.7800 7940.0000 1.0000
89.8000 7826.0000 1.0000
89.8200 7904.0000 1.0000
89.8400 7846.0000 1.0000
89.8600 7826.0000 1.0000
89.8800 7600.0000 1.0000
89.9000 7778.0000 1.0000
89.9200 7845.0000 1.0000
89.9400 7681.0000 1.0000
89.9600 7808.0000 1.0000
89.9800 7768.0000 1.0000
90.0000 7858.0000 1.0000
*RAS_INT_END
*RAS_TEMPERATURE_START
*RAS_TEMPERATURE_END
*RAS_DATA_END
